"id","date_time","trial","trial_mode","stimulus","stimulus_local","stimulus_global","position","x_position","y_position","correct_response","response","level","congruence","ACC","RT"
1,"2020-02-03_17h29.57.711",NA,"practice","bigHsmallS.png","S","H","up_left",-0.2,0.2,"s","s","loc","inc",1,915.999889
1,"2020-02-03_17h29.57.711",NA,"practice","bigSsmallH.png","H","S","down_left",-0.2,-0.2,"h","h","loc","inc",1,977.999926
1,"2020-02-03_17h29.57.711",NA,"practice","bigHsmallS.png","S","H","down_right",0.2,-0.2,"s","s","loc","inc",1,951.999903
1,"2020-02-03_17h29.57.711",NA,"practice","bigHsmallH.png","H","H","up_right",0.2,0.2,"h","h","loc","con",1,810.99987
1,"2020-02-03_17h29.57.711",NA,"practice","bigHsmallS.png","S","H","down_left",-0.2,-0.2,"s","s","loc","inc",1,835.000038
1,"2020-02-03_17h29.57.711",NA,"practice","bigSsmallH.png","H","S","up_left",-0.2,0.2,"h","s","loc","inc",0,421.000004
1,"2020-02-03_17h29.57.711",NA,"practice","bigSsmallH.png","H","S","down_right",0.2,-0.2,"h","h","loc","inc",1,721.000195
1,"2020-02-03_17h29.57.711",NA,"practice","bigSsmallH.png","H","S","up_right",0.2,0.2,"h","h","loc","inc",1,653.000116
1,"2020-02-03_17h29.57.711",NA,"practice","bigHsmallS.png","S","H","up_left",-0.2,0.2,"h","s","glo","inc",0,953.000069
1,"2020-02-03_17h29.57.711",NA,"practice","bigSsmallH.png","H","S","down_left",-0.2,-0.2,"s","s","glo","inc",1,369.999886
1,"2020-02-03_17h29.57.711",NA,"practice","bigSsmallH.png","H","S","up_left",-0.2,0.2,"s","s","glo","inc",1,470.000029
1,"2020-02-03_17h29.57.711",NA,"practice","bigSsmallH.png","H","S","down_right",0.2,-0.2,"s","s","glo","inc",1,418.99991
1,"2020-02-03_17h29.57.711",NA,"practice","bigHsmallS.png","S","H","down_right",0.2,-0.2,"h","h","glo","inc",1,534.999847
1,"2020-02-03_17h29.57.711",NA,"practice","bigHsmallH.png","H","H","up_right",0.2,0.2,"h","h","glo","con",1,360.000134
1,"2020-02-03_17h29.57.711",NA,"practice","bigSsmallH.png","H","S","up_right",0.2,0.2,"s","s","glo","inc",1,470.999956
1,"2020-02-03_17h29.57.711",NA,"practice","bigHsmallS.png","S","H","down_left",-0.2,-0.2,"h","h","glo","inc",1,453.000069
1,"2020-02-03_17h29.57.711",1,"test","bigSsmallS.png","S","S","up_right",0.2,0.2,"s","s","loc","con",1,1078.999996
1,"2020-02-03_17h29.57.711",2,"test","bigHsmallH.png","H","H","down_right",0.2,-0.2,"h","h","loc","con",1,703.000069
1,"2020-02-03_17h29.57.711",3,"test","bigHsmallH.png","H","H","down_left",-0.2,-0.2,"h","h","loc","con",1,703.999996
1,"2020-02-03_17h29.57.711",4,"test","bigSsmallH.png","H","S","up_left",-0.2,0.2,"h","h","loc","inc",1,758.000135
1,"2020-02-03_17h29.57.711",5,"test","bigHsmallS.png","S","H","up_left",-0.2,0.2,"s","s","loc","inc",1,734.999895
1,"2020-02-03_17h29.57.711",6,"test","bigSsmallS.png","S","S","up_left",-0.2,0.2,"s","s","loc","con",1,742.999792
1,"2020-02-03_17h29.57.711",7,"test","bigHsmallS.png","S","H","down_left",-0.2,-0.2,"s","s","loc","inc",1,918.99991
1,"2020-02-03_17h29.57.711",8,"test","bigSsmallS.png","S","S","down_right",0.2,-0.2,"s","s","loc","con",1,868.999958
1,"2020-02-03_17h29.57.711",9,"test","bigSsmallH.png","H","S","up_right",0.2,0.2,"h","h","loc","inc",1,710.000038
1,"2020-02-03_17h29.57.711",10,"test","bigHsmallH.png","H","H","up_right",0.2,0.2,"h","h","loc","con",1,769.999981
1,"2020-02-03_17h29.57.711",11,"test","bigSsmallH.png","H","S","down_right",0.2,-0.2,"h","h","loc","inc",1,719.000101
1,"2020-02-03_17h29.57.711",12,"test","bigHsmallH.png","H","H","up_left",-0.2,0.2,"h","h","loc","con",1,702.000141
1,"2020-02-03_17h29.57.711",13,"test","bigHsmallS.png","S","H","down_right",0.2,-0.2,"s","s","loc","inc",1,584.9998
1,"2020-02-03_17h29.57.711",14,"test","bigSsmallH.png","H","S","down_left",-0.2,-0.2,"h","h","loc","inc",1,586.999893
1,"2020-02-03_17h29.57.711",15,"test","bigHsmallS.png","S","H","up_right",0.2,0.2,"s","s","loc","inc",1,685.99987
1,"2020-02-03_17h29.57.711",16,"test","bigSsmallS.png","S","S","down_left",-0.2,-0.2,"s","s","loc","con",1,553.999901
1,"2020-02-03_17h29.57.711",17,"test","bigHsmallS.png","S","H","up_left",-0.2,0.2,"s","s","loc","inc",1,853.000164
1,"2020-02-03_17h29.57.711",18,"test","bigHsmallH.png","H","H","down_left",-0.2,-0.2,"h","h","loc","con",1,587.999821
1,"2020-02-03_17h29.57.711",19,"test","bigSsmallH.png","H","S","up_right",0.2,0.2,"h","h","loc","inc",1,769.999981
1,"2020-02-03_17h29.57.711",20,"test","bigHsmallH.png","H","H","up_right",0.2,0.2,"h","h","loc","con",1,636.000156
1,"2020-02-03_17h29.57.711",21,"test","bigSsmallS.png","S","S","up_left",-0.2,0.2,"s","s","loc","con",1,654.000044
1,"2020-02-03_17h29.57.711",22,"test","bigSsmallH.png","H","S","up_left",-0.2,0.2,"h","h","loc","inc",1,687.999964
1,"2020-02-03_17h29.57.711",23,"test","bigHsmallS.png","S","H","down_right",0.2,-0.2,"s","s","loc","inc",1,670.000076
1,"2020-02-03_17h29.57.711",24,"test","bigHsmallH.png","H","H","down_right",0.2,-0.2,"h","h","loc","con",1,569.000006
1,"2020-02-03_17h29.57.711",25,"test","bigSsmallH.png","H","S","down_right",0.2,-0.2,"h","h","loc","inc",1,619.999886
1,"2020-02-03_17h29.57.711",26,"test","bigSsmallH.png","H","S","down_left",-0.2,-0.2,"h","h","loc","inc",1,668.99991
1,"2020-02-03_17h29.57.711",27,"test","bigSsmallS.png","S","S","down_left",-0.2,-0.2,"s","s","loc","con",1,868.000031
1,"2020-02-03_17h29.57.711",28,"test","bigSsmallS.png","S","S","down_right",0.2,-0.2,"s","s","loc","con",1,584.9998
1,"2020-02-03_17h29.57.711",29,"test","bigHsmallS.png","S","H","up_right",0.2,0.2,"s","s","loc","inc",1,852.999926
1,"2020-02-03_17h29.57.711",30,"test","bigSsmallS.png","S","S","up_right",0.2,0.2,"s","s","loc","con",1,621.000051
1,"2020-02-03_17h29.57.711",31,"test","bigHsmallH.png","H","H","up_left",-0.2,0.2,"h","h","loc","con",1,587.000132
1,"2020-02-03_17h29.57.711",32,"test","bigHsmallS.png","S","H","down_left",-0.2,-0.2,"s","s","loc","inc",1,703.999996
1,"2020-02-03_17h29.57.711",33,"test","bigSsmallS.png","S","S","up_right",0.2,0.2,"s","s","loc","con",1,551.999807
1,"2020-02-03_17h29.57.711",34,"test","bigHsmallS.png","S","H","up_right",0.2,0.2,"s","s","loc","inc",1,502.000093
1,"2020-02-03_17h29.57.711",35,"test","bigSsmallH.png","H","S","down_left",-0.2,-0.2,"h","h","loc","inc",1,687.000036
1,"2020-02-03_17h29.57.711",36,"test","bigHsmallH.png","H","H","down_left",-0.2,-0.2,"h","h","loc","con",1,586.000204
1,"2020-02-03_17h29.57.711",37,"test","bigSsmallS.png","S","S","up_left",-0.2,0.2,"s","s","loc","con",1,469.000101
1,"2020-02-03_17h29.57.711",38,"test","bigHsmallH.png","H","H","up_left",-0.2,0.2,"h","h","loc","con",1,450.999975
1,"2020-02-03_17h29.57.711",39,"test","bigHsmallS.png","S","H","down_right",0.2,-0.2,"s","s","loc","inc",1,665.999889
1,"2020-02-03_17h29.57.711",40,"test","bigSsmallH.png","H","S","up_right",0.2,0.2,"h","h","loc","inc",1,602.999926
1,"2020-02-03_17h29.57.711",41,"test","bigHsmallH.png","H","H","down_right",0.2,-0.2,"h","h","loc","con",1,519.999981
1,"2020-02-03_17h29.57.711",42,"test","bigHsmallH.png","H","H","up_right",0.2,0.2,"h","h","loc","con",1,468.999863
1,"2020-02-03_17h29.57.711",43,"test","bigSsmallS.png","S","S","down_right",0.2,-0.2,"s","s","loc","con",1,355.000019
1,"2020-02-03_17h29.57.711",44,"test","bigSsmallS.png","S","S","down_left",-0.2,-0.2,"s","s","loc","con",1,519.000053
1,"2020-02-03_17h29.57.711",45,"test","bigSsmallH.png","H","S","down_right",0.2,-0.2,"h","h","loc","inc",1,653.000116
1,"2020-02-03_17h29.57.711",46,"test","bigHsmallS.png","S","H","down_left",-0.2,-0.2,"s","s","loc","inc",1,569.000006
1,"2020-02-03_17h29.57.711",47,"test","bigSsmallH.png","H","S","up_left",-0.2,0.2,"h","h","loc","inc",1,635.999918
1,"2020-02-03_17h29.57.711",48,"test","bigHsmallS.png","S","H","up_left",-0.2,0.2,"s","s","loc","inc",1,585.999966
1,"2020-02-03_17h29.57.711",49,"test","bigHsmallS.png","S","H","up_left",-0.2,0.2,"s","s","loc","inc",1,921.000004
1,"2020-02-03_17h29.57.711",50,"test","bigHsmallH.png","H","H","up_right",0.2,0.2,"h","h","loc","con",1,519.999981
1,"2020-02-03_17h29.57.711",51,"test","bigSsmallS.png","S","S","down_left",-0.2,-0.2,"s","s","loc","con",1,501.999855
1,"2020-02-03_17h29.57.711",52,"test","bigSsmallH.png","H","S","down_left",-0.2,-0.2,"h","h","loc","inc",1,675.99988
1,"2020-02-03_17h29.57.711",53,"test","bigSsmallH.png","H","S","up_left",-0.2,0.2,"h","h","loc","inc",1,686.000109
1,"2020-02-03_17h29.57.711",54,"test","bigSsmallS.png","S","S","down_right",0.2,-0.2,"s","s","loc","con",1,553.999901
1,"2020-02-03_17h29.57.711",55,"test","bigSsmallH.png","H","S","up_right",0.2,0.2,"h","h","loc","inc",1,786.999941
1,"2020-02-03_17h29.57.711",56,"test","bigHsmallH.png","H","H","down_right",0.2,-0.2,"h","h","loc","con",1,453.000069
1,"2020-02-03_17h29.57.711",57,"test","bigHsmallS.png","S","H","down_left",-0.2,-0.2,"s","s","loc","inc",1,585.999966
1,"2020-02-03_17h29.57.711",58,"test","bigSsmallH.png","H","S","down_right",0.2,-0.2,"h","h","loc","inc",1,585.999966
1,"2020-02-03_17h29.57.711",59,"test","bigHsmallH.png","H","H","up_left",-0.2,0.2,"h","s","loc","con",0,436.999798
1,"2020-02-03_17h29.57.711",60,"test","bigHsmallH.png","H","H","down_left",-0.2,-0.2,"h","h","loc","con",1,587.000132
1,"2020-02-03_17h29.57.711",61,"test","bigSsmallS.png","S","S","up_left",-0.2,0.2,"s","s","loc","con",1,585.999966
1,"2020-02-03_17h29.57.711",62,"test","bigHsmallS.png","S","H","down_right",0.2,-0.2,"s","h","loc","inc",0,802.000046
1,"2020-02-03_17h29.57.711",63,"test","bigSsmallS.png","S","S","up_right",0.2,0.2,"s","s","loc","con",1,720.999956
1,"2020-02-03_17h29.57.711",64,"test","bigHsmallS.png","S","H","up_right",0.2,0.2,"s","s","loc","inc",1,534.000158
1,"2020-02-03_17h29.57.711",65,"test","bigHsmallS.png","S","H","down_right",0.2,-0.2,"s","s","loc","inc",1,603.000164
1,"2020-02-03_17h29.57.711",66,"test","bigHsmallH.png","H","H","up_left",-0.2,0.2,"h","h","loc","con",1,487.999916
1,"2020-02-03_17h29.57.711",67,"test","bigHsmallS.png","S","H","up_right",0.2,0.2,"s","s","loc","inc",1,554.000139
1,"2020-02-03_17h29.57.711",68,"test","bigSsmallH.png","H","S","up_left",-0.2,0.2,"h","h","loc","inc",1,602.999926
1,"2020-02-03_17h29.57.711",69,"test","bigSsmallH.png","H","S","down_right",0.2,-0.2,"h","h","loc","inc",1,618.999958
1,"2020-02-03_17h29.57.711",70,"test","bigHsmallS.png","S","H","up_left",-0.2,0.2,"s","s","loc","inc",1,820.000172
1,"2020-02-03_17h29.57.711",71,"test","bigSsmallH.png","H","S","up_right",0.2,0.2,"h","h","loc","inc",1,553.999901
1,"2020-02-03_17h29.57.711",72,"test","bigSsmallS.png","S","S","down_right",0.2,-0.2,"s","s","loc","con",1,453.999996
1,"2020-02-03_17h29.57.711",73,"test","bigSsmallS.png","S","S","up_left",-0.2,0.2,"s","s","loc","con",1,470.999956
1,"2020-02-03_17h29.57.711",74,"test","bigHsmallH.png","H","H","up_right",0.2,0.2,"h","h","loc","con",1,403.000116
1,"2020-02-03_17h29.57.711",75,"test","bigSsmallS.png","S","S","up_right",0.2,0.2,"s","s","loc","con",1,585.999966
1,"2020-02-03_17h29.57.711",76,"test","bigSsmallH.png","H","S","down_left",-0.2,-0.2,"h","h","loc","inc",1,569.000006
1,"2020-02-03_17h29.57.711",77,"test","bigSsmallS.png","S","S","down_left",-0.2,-0.2,"s","s","loc","con",1,436.000109
1,"2020-02-03_17h29.57.711",78,"test","bigHsmallH.png","H","H","down_right",0.2,-0.2,"h","h","loc","con",1,385.999918
1,"2020-02-03_17h29.57.711",79,"test","bigHsmallH.png","H","H","down_left",-0.2,-0.2,"h","h","loc","con",1,519.999981
1,"2020-02-03_17h29.57.711",80,"test","bigHsmallS.png","S","H","down_left",-0.2,-0.2,"s","s","loc","inc",1,552.999973
1,"2020-02-03_17h29.57.711",81,"test","bigSsmallH.png","H","S","up_left",-0.2,0.2,"h","h","loc","inc",1,653.000116
1,"2020-02-03_17h29.57.711",82,"test","bigHsmallH.png","H","H","up_right",0.2,0.2,"h","h","loc","con",1,551.999807
1,"2020-02-03_17h29.57.711",83,"test","bigSsmallS.png","S","S","up_left",-0.2,0.2,"s","s","loc","con",1,368.999958
1,"2020-02-03_17h29.57.711",84,"test","bigHsmallS.png","S","H","up_left",-0.2,0.2,"s","s","loc","inc",1,570.999861
1,"2020-02-03_17h29.57.711",85,"test","bigSsmallH.png","H","S","down_right",0.2,-0.2,"h","h","loc","inc",1,604.000092
1,"2020-02-03_17h29.57.711",86,"test","bigSsmallS.png","S","S","up_right",0.2,0.2,"s","s","loc","con",1,436.000109
1,"2020-02-03_17h29.57.711",87,"test","bigSsmallS.png","S","S","down_right",0.2,-0.2,"s","s","loc","con",1,486.999989
1,"2020-02-03_17h29.57.711",88,"test","bigSsmallS.png","S","S","down_left",-0.2,-0.2,"s","s","loc","con",1,465.999842
1,"2020-02-03_17h29.57.711",89,"test","bigHsmallS.png","S","H","down_left",-0.2,-0.2,"s","s","loc","inc",1,619.999886
1,"2020-02-03_17h29.57.711",90,"test","bigHsmallH.png","H","H","down_right",0.2,-0.2,"h","h","loc","con",1,385.999918
1,"2020-02-03_17h29.57.711",91,"test","bigHsmallS.png","S","H","up_right",0.2,0.2,"s","s","loc","inc",1,802.999973
1,"2020-02-03_17h29.57.711",92,"test","bigSsmallH.png","H","S","up_right",0.2,0.2,"h","s","loc","inc",0,387.000084
1,"2020-02-03_17h29.57.711",93,"test","bigHsmallH.png","H","H","up_left",-0.2,0.2,"h","h","loc","con",1,634.000063
1,"2020-02-03_17h29.57.711",94,"test","bigHsmallS.png","S","H","down_right",0.2,-0.2,"s","s","loc","inc",1,503.000021
1,"2020-02-03_17h29.57.711",95,"test","bigHsmallH.png","H","H","down_left",-0.2,-0.2,"h","h","loc","con",1,452.99983
1,"2020-02-03_17h29.57.711",96,"test","bigSsmallH.png","H","S","down_left",-0.2,-0.2,"h","h","loc","inc",1,602.999926
1,"2020-02-03_17h29.57.711",97,"test","bigHsmallS.png","S","H","down_left",-0.2,-0.2,"h","h","glo","inc",1,553.000212
1,"2020-02-03_17h29.57.711",98,"test","bigSsmallH.png","H","S","down_left",-0.2,-0.2,"s","s","glo","inc",1,369.000196
1,"2020-02-03_17h29.57.711",99,"test","bigSsmallH.png","H","S","down_right",0.2,-0.2,"s","s","glo","inc",1,420.000076
1,"2020-02-03_17h29.57.711",100,"test","bigHsmallS.png","S","H","down_right",0.2,-0.2,"h","h","glo","inc",1,404.999971
1,"2020-02-03_17h29.57.711",101,"test","bigHsmallS.png","S","H","up_right",0.2,0.2,"h","h","glo","inc",1,371.000051
1,"2020-02-03_17h29.57.711",102,"test","bigSsmallH.png","H","S","up_left",-0.2,0.2,"s","s","glo","inc",1,286.999941
1,"2020-02-03_17h29.57.711",103,"test","bigSsmallS.png","S","S","down_left",-0.2,-0.2,"s","s","glo","con",1,385.999918
1,"2020-02-03_17h29.57.711",104,"test","bigHsmallH.png","H","H","up_left",-0.2,0.2,"h","h","glo","con",1,402.999878
1,"2020-02-03_17h29.57.711",105,"test","bigHsmallH.png","H","H","down_right",0.2,-0.2,"h","h","glo","con",1,336.999893
1,"2020-02-03_17h29.57.711",106,"test","bigSsmallS.png","S","S","down_right",0.2,-0.2,"s","s","glo","con",1,418.99991
1,"2020-02-03_17h29.57.711",107,"test","bigHsmallS.png","S","H","up_left",-0.2,0.2,"h","h","glo","inc",1,453.000069
1,"2020-02-03_17h29.57.711",108,"test","bigSsmallS.png","S","S","up_right",0.2,0.2,"s","s","glo","con",1,285.000086
1,"2020-02-03_17h29.57.711",109,"test","bigSsmallH.png","H","S","up_right",0.2,0.2,"s","s","glo","inc",1,369.000196
1,"2020-02-03_17h29.57.711",110,"test","bigHsmallH.png","H","H","down_left",-0.2,-0.2,"h","h","glo","con",1,375
1,"2020-02-03_17h29.57.711",111,"test","bigSsmallS.png","S","S","up_left",-0.2,0.2,"s","s","glo","con",1,304.000139
1,"2020-02-03_17h29.57.711",112,"test","bigHsmallH.png","H","H","up_right",0.2,0.2,"h","h","glo","con",1,402.999878
1,"2020-02-03_17h29.57.711",113,"test","bigHsmallS.png","S","H","down_left",-0.2,-0.2,"h","s","glo","inc",0,286.000013
1,"2020-02-03_17h29.57.711",114,"test","bigSsmallS.png","S","S","up_right",0.2,0.2,"s","h","glo","con",0,368.999958
1,"2020-02-03_17h29.57.711",115,"test","bigSsmallS.png","S","S","down_right",0.2,-0.2,"s","s","glo","con",1,385.999918
1,"2020-02-03_17h29.57.711",116,"test","bigSsmallH.png","H","S","down_right",0.2,-0.2,"s","s","glo","inc",1,437.999964
1,"2020-02-03_17h29.57.711",117,"test","bigSsmallH.png","H","S","up_right",0.2,0.2,"s","s","glo","inc",1,450.999975
1,"2020-02-03_17h29.57.711",118,"test","bigHsmallH.png","H","H","up_left",-0.2,0.2,"h","h","glo","con",1,355.000019
1,"2020-02-03_17h29.57.711",119,"test","bigHsmallS.png","S","H","up_right",0.2,0.2,"h","h","glo","inc",1,419.000149
1,"2020-02-03_17h29.57.711",120,"test","bigSsmallH.png","H","S","up_left",-0.2,0.2,"s","s","glo","inc",1,413.000107
1,"2020-02-03_17h29.57.711",121,"test","bigHsmallS.png","S","H","up_left",-0.2,0.2,"h","h","glo","inc",1,453.999996
1,"2020-02-03_17h29.57.711",122,"test","bigSsmallS.png","S","S","up_left",-0.2,0.2,"s","s","glo","con",1,335.999966
1,"2020-02-03_17h29.57.711",123,"test","bigSsmallH.png","H","S","down_left",-0.2,-0.2,"s","s","glo","inc",1,421.999931
1,"2020-02-03_17h29.57.711",124,"test","bigHsmallH.png","H","H","down_right",0.2,-0.2,"h","h","glo","con",1,338.000059
1,"2020-02-03_17h29.57.711",125,"test","bigHsmallS.png","S","H","down_right",0.2,-0.2,"h","h","glo","inc",1,369.000196
1,"2020-02-03_17h29.57.711",126,"test","bigSsmallS.png","S","S","down_left",-0.2,-0.2,"s","s","glo","con",1,302.999973
1,"2020-02-03_17h29.57.711",127,"test","bigHsmallH.png","H","H","down_left",-0.2,-0.2,"h","h","glo","con",1,404.000044
1,"2020-02-03_17h29.57.711",128,"test","bigHsmallH.png","H","H","up_right",0.2,0.2,"h","h","glo","con",1,319.999933
1,"2020-02-03_17h29.57.711",129,"test","bigHsmallS.png","S","H","down_left",-0.2,-0.2,"h","s","glo","inc",0,302.999973
1,"2020-02-03_17h29.57.711",130,"test","bigSsmallH.png","H","S","up_right",0.2,0.2,"s","h","glo","inc",0,321.000099
1,"2020-02-03_17h29.57.711",131,"test","bigSsmallS.png","S","S","down_left",-0.2,-0.2,"s","s","glo","con",1,436.000109
1,"2020-02-03_17h29.57.711",132,"test","bigSsmallH.png","H","S","down_left",-0.2,-0.2,"s","s","glo","inc",1,385.999918
1,"2020-02-03_17h29.57.711",133,"test","bigHsmallH.png","H","H","down_left",-0.2,-0.2,"h","h","glo","con",1,336.999893
1,"2020-02-03_17h29.57.711",134,"test","bigSsmallS.png","S","S","up_right",0.2,0.2,"s","s","glo","con",1,468.999863
1,"2020-02-03_17h29.57.711",135,"test","bigHsmallH.png","H","H","up_left",-0.2,0.2,"h","h","glo","con",1,402.999878
1,"2020-02-03_17h29.57.711",136,"test","bigSsmallS.png","S","S","up_left",-0.2,0.2,"s","s","glo","con",1,335.999966
1,"2020-02-03_17h29.57.711",137,"test","bigHsmallS.png","S","H","up_left",-0.2,0.2,"h","h","glo","inc",1,388.000011
1,"2020-02-03_17h29.57.711",138,"test","bigSsmallS.png","S","S","down_right",0.2,-0.2,"s","s","glo","con",1,440.000057
1,"2020-02-03_17h29.57.711",139,"test","bigHsmallS.png","S","H","down_right",0.2,-0.2,"h","h","glo","inc",1,368.999958
1,"2020-02-03_17h29.57.711",140,"test","bigSsmallH.png","H","S","up_left",-0.2,0.2,"s","s","glo","inc",1,336.999893
1,"2020-02-03_17h29.57.711",141,"test","bigSsmallH.png","H","S","down_right",0.2,-0.2,"s","s","glo","inc",1,436.000109
1,"2020-02-03_17h29.57.711",142,"test","bigHsmallH.png","H","H","up_right",0.2,0.2,"h","h","glo","con",1,325.999975
1,"2020-02-03_17h29.57.711",143,"test","bigHsmallS.png","S","H","up_right",0.2,0.2,"h","h","glo","inc",1,388.000011
1,"2020-02-03_17h29.57.711",144,"test","bigHsmallH.png","H","H","down_right",0.2,-0.2,"h","h","glo","con",1,387.000084
1,"2020-02-03_17h29.57.711",145,"test","bigHsmallH.png","H","H","down_left",-0.2,-0.2,"h","h","glo","con",1,504.000187
1,"2020-02-03_17h29.57.711",146,"test","bigSsmallS.png","S","S","up_left",-0.2,0.2,"s","s","glo","con",1,453.000069
1,"2020-02-03_17h29.57.711",147,"test","bigSsmallS.png","S","S","down_right",0.2,-0.2,"s","s","glo","con",1,453.000069
1,"2020-02-03_17h29.57.711",148,"test","bigSsmallS.png","S","S","down_left",-0.2,-0.2,"s","s","glo","con",1,355.000019
1,"2020-02-03_17h29.57.711",149,"test","bigSsmallH.png","H","S","down_right",0.2,-0.2,"s","s","glo","inc",1,370.000124
1,"2020-02-03_17h29.57.711",150,"test","bigHsmallS.png","S","H","up_right",0.2,0.2,"h","h","glo","inc",1,404.000044
1,"2020-02-03_17h29.57.711",151,"test","bigSsmallH.png","H","S","up_right",0.2,0.2,"s","s","glo","inc",1,502.000093
1,"2020-02-03_17h29.57.711",152,"test","bigHsmallS.png","S","H","down_left",-0.2,-0.2,"h","h","glo","inc",1,434.999943
1,"2020-02-03_17h29.57.711",153,"test","bigHsmallH.png","H","H","down_right",0.2,-0.2,"h","h","glo","con",1,385.999918
1,"2020-02-03_17h29.57.711",154,"test","bigSsmallH.png","H","S","down_left",-0.2,-0.2,"s","s","glo","inc",1,302.999973
1,"2020-02-03_17h29.57.711",155,"test","bigHsmallH.png","H","H","up_left",-0.2,0.2,"h","h","glo","con",1,370.000124
1,"2020-02-03_17h29.57.711",156,"test","bigHsmallH.png","H","H","up_right",0.2,0.2,"h","h","glo","con",1,319.000006
1,"2020-02-03_17h29.57.711",157,"test","bigHsmallS.png","S","H","up_left",-0.2,0.2,"h","s","glo","inc",0,368.999958
1,"2020-02-03_17h29.57.711",158,"test","bigHsmallS.png","S","H","down_right",0.2,-0.2,"h","h","glo","inc",1,369.999886
1,"2020-02-03_17h29.57.711",159,"test","bigSsmallS.png","S","S","up_right",0.2,0.2,"s","s","glo","con",1,402.999878
1,"2020-02-03_17h29.57.711",160,"test","bigSsmallH.png","H","S","up_left",-0.2,0.2,"s","s","glo","inc",1,355.000019
1,"2020-02-03_17h29.57.711",161,"test","bigHsmallS.png","S","H","down_left",-0.2,-0.2,"h","h","glo","inc",1,537.000179
1,"2020-02-03_17h29.57.711",162,"test","bigSsmallH.png","H","S","up_right",0.2,0.2,"s","s","glo","inc",1,453.000069
1,"2020-02-03_17h29.57.711",163,"test","bigHsmallS.png","S","H","up_right",0.2,0.2,"h","h","glo","inc",1,353.000164
1,"2020-02-03_17h29.57.711",164,"test","bigHsmallH.png","H","H","up_right",0.2,0.2,"h","h","glo","con",1,387.000084
1,"2020-02-03_17h29.57.711",165,"test","bigSsmallS.png","S","S","down_right",0.2,-0.2,"s","s","glo","con",1,337.000132
1,"2020-02-03_17h29.57.711",166,"test","bigSsmallS.png","S","S","up_left",-0.2,0.2,"s","s","glo","con",1,418.99991
1,"2020-02-03_17h29.57.711",167,"test","bigHsmallH.png","H","H","down_left",-0.2,-0.2,"h","h","glo","con",1,369.999886
1,"2020-02-03_17h29.57.711",168,"test","bigHsmallH.png","H","H","down_right",0.2,-0.2,"h","h","glo","con",1,470.999956
1,"2020-02-03_17h29.57.711",169,"test","bigSsmallH.png","H","S","down_left",-0.2,-0.2,"s","s","glo","inc",1,337.999821
1,"2020-02-03_17h29.57.711",170,"test","bigSsmallH.png","H","S","up_left",-0.2,0.2,"s","s","glo","inc",1,369.999886
1,"2020-02-03_17h29.57.711",171,"test","bigHsmallH.png","H","H","up_left",-0.2,0.2,"h","h","glo","con",1,402.999878
1,"2020-02-03_17h29.57.711",172,"test","bigHsmallS.png","S","H","up_left",-0.2,0.2,"h","h","glo","inc",1,503.000021
1,"2020-02-03_17h29.57.711",173,"test","bigSsmallS.png","S","S","up_right",0.2,0.2,"s","s","glo","con",1,404.000044
1,"2020-02-03_17h29.57.711",174,"test","bigSsmallS.png","S","S","down_left",-0.2,-0.2,"s","s","glo","con",1,436.000109
1,"2020-02-03_17h29.57.711",175,"test","bigSsmallH.png","H","S","down_right",0.2,-0.2,"s","h","glo","inc",0,852.999926
1,"2020-02-03_17h29.57.711",176,"test","bigHsmallS.png","S","H","down_right",0.2,-0.2,"h","h","glo","inc",1,469.000101
1,"2020-02-03_17h29.57.711",177,"test","bigSsmallH.png","H","S","down_right",0.2,-0.2,"s","s","glo","inc",1,587.000132
1,"2020-02-03_17h29.57.711",178,"test","bigHsmallH.png","H","H","up_left",-0.2,0.2,"h","h","glo","con",1,385.999918
1,"2020-02-03_17h29.57.711",179,"test","bigHsmallS.png","S","H","down_right",0.2,-0.2,"h","h","glo","inc",1,439.00013
1,"2020-02-03_17h29.57.711",180,"test","bigHsmallS.png","S","H","up_left",-0.2,0.2,"h","h","glo","inc",1,453.000069
1,"2020-02-03_17h29.57.711",181,"test","bigHsmallS.png","S","H","up_right",0.2,0.2,"h","h","glo","inc",1,419.000149
1,"2020-02-03_17h29.57.711",182,"test","bigSsmallH.png","H","S","up_left",-0.2,0.2,"s","s","glo","inc",1,370.000124
1,"2020-02-03_17h29.57.711",183,"test","bigHsmallS.png","S","H","down_left",-0.2,-0.2,"h","h","glo","inc",1,420.000076
1,"2020-02-03_17h29.57.711",184,"test","bigSsmallS.png","S","S","up_right",0.2,0.2,"s","s","glo","con",1,519.999981
1,"2020-02-03_17h29.57.711",185,"test","bigSsmallS.png","S","S","down_right",0.2,-0.2,"s","s","glo","con",1,519.999981
1,"2020-02-03_17h29.57.711",186,"test","bigSsmallH.png","H","S","up_right",0.2,0.2,"s","s","glo","inc",1,470.000029
1,"2020-02-03_17h29.57.711",187,"test","bigHsmallH.png","H","H","down_right",0.2,-0.2,"h","h","glo","con",1,319.000006
1,"2020-02-03_17h29.57.711",188,"test","bigSsmallS.png","S","S","up_left",-0.2,0.2,"s","s","glo","con",1,353.000164
1,"2020-02-03_17h29.57.711",189,"test","bigSsmallS.png","S","S","down_left",-0.2,-0.2,"s","s","glo","con",1,453.000069
1,"2020-02-03_17h29.57.711",190,"test","bigHsmallH.png","H","H","down_left",-0.2,-0.2,"h","h","glo","con",1,403.000116
1,"2020-02-03_17h29.57.711",191,"test","bigHsmallH.png","H","H","up_right",0.2,0.2,"h","h","glo","con",1,387.000084
1,"2020-02-03_17h29.57.711",192,"test","bigSsmallH.png","H","S","down_left",-0.2,-0.2,"s","s","glo","inc",1,319.000006
2,"2020-02-03_18h01.25.314",NA,"practice","bigHsmallH.png","H","H","up_right",0.2,0.2,"h","s","loc","con",0,5037.000179
2,"2020-02-03_18h01.25.314",NA,"practice","bigHsmallS.png","S","H","down_right",0.2,-0.2,"s","s","loc","inc",1,4095.000029
2,"2020-02-03_18h01.25.314",NA,"practice","bigSsmallH.png","H","S","down_right",0.2,-0.2,"h","h","loc","inc",1,1444.000006
2,"2020-02-03_18h01.25.314",NA,"practice","bigSsmallH.png","H","S","up_right",0.2,0.2,"h","h","loc","inc",1,902.000189
2,"2020-02-03_18h01.25.314",NA,"practice","bigHsmallS.png","S","H","up_left",-0.2,0.2,"s","h","loc","inc",0,4531.999826
2,"2020-02-03_18h01.25.314",NA,"practice","bigSsmallH.png","H","S","up_left",-0.2,0.2,"h","h","loc","inc",1,984.999895
2,"2020-02-03_18h01.25.314",NA,"practice","bigHsmallS.png","S","H","down_left",-0.2,-0.2,"s","s","loc","inc",1,1153.000116
2,"2020-02-03_18h01.25.314",NA,"practice","bigSsmallH.png","H","S","down_left",-0.2,-0.2,"h","h","loc","inc",1,1119.999886
2,"2020-02-03_18h01.25.314",NA,"practice","bigSsmallH.png","H","S","down_right",0.2,-0.2,"s","s","glo","inc",1,586.999893
2,"2020-02-03_18h01.25.314",NA,"practice","bigHsmallH.png","H","H","up_right",0.2,0.2,"h","h","glo","con",1,553.000212
2,"2020-02-03_18h01.25.314",NA,"practice","bigSsmallH.png","H","S","down_left",-0.2,-0.2,"s","s","glo","inc",1,451.999903
2,"2020-02-03_18h01.25.314",NA,"practice","bigHsmallS.png","S","H","down_right",0.2,-0.2,"h","h","glo","inc",1,420.000076
2,"2020-02-03_18h01.25.314",NA,"practice","bigHsmallS.png","S","H","down_left",-0.2,-0.2,"h","h","glo","inc",1,553.999901
2,"2020-02-03_18h01.25.314",NA,"practice","bigHsmallS.png","S","H","up_left",-0.2,0.2,"h","h","glo","inc",1,484.999895
2,"2020-02-03_18h01.25.314",NA,"practice","bigSsmallH.png","H","S","up_left",-0.2,0.2,"s","s","glo","inc",1,457.999945
2,"2020-02-03_18h01.25.314",NA,"practice","bigSsmallH.png","H","S","up_right",0.2,0.2,"s","s","glo","inc",1,637.000084
2,"2020-02-03_18h01.25.314",1,"test","bigHsmallH.png","H","H","down_left",-0.2,-0.2,"h","h","loc","con",1,1287.000179
2,"2020-02-03_18h01.25.314",2,"test","bigSsmallS.png","S","S","up_right",0.2,0.2,"s","s","loc","con",1,1045.000076
2,"2020-02-03_18h01.25.314",3,"test","bigHsmallH.png","H","H","up_right",0.2,0.2,"h","h","loc","con",1,1003.999949
2,"2020-02-03_18h01.25.314",4,"test","bigSsmallS.png","S","S","up_left",-0.2,0.2,"s","s","loc","con",1,755.000114
2,"2020-02-03_18h01.25.314",5,"test","bigHsmallS.png","S","H","up_right",0.2,0.2,"s","s","loc","inc",1,855.000019
2,"2020-02-03_18h01.25.314",6,"test","bigSsmallS.png","S","S","down_right",0.2,-0.2,"s","s","loc","con",1,769.000053
2,"2020-02-03_18h01.25.314",7,"test","bigSsmallH.png","H","S","down_left",-0.2,-0.2,"h","h","loc","inc",1,802.999973
2,"2020-02-03_18h01.25.314",8,"test","bigSsmallH.png","H","S","down_right",0.2,-0.2,"h","h","loc","inc",1,804.000139
2,"2020-02-03_18h01.25.314",9,"test","bigHsmallH.png","H","H","up_left",-0.2,0.2,"h","h","loc","con",1,750.999928
2,"2020-02-03_18h01.25.314",10,"test","bigSsmallS.png","S","S","down_left",-0.2,-0.2,"s","s","loc","con",1,892.000198
2,"2020-02-03_18h01.25.314",11,"test","bigSsmallH.png","H","S","up_left",-0.2,0.2,"h","h","loc","inc",1,1003.999949
2,"2020-02-03_18h01.25.314",12,"test","bigHsmallS.png","S","H","up_left",-0.2,0.2,"s","s","loc","inc",1,1121.000051
2,"2020-02-03_18h01.25.314",13,"test","bigHsmallS.png","S","H","down_left",-0.2,-0.2,"s","s","loc","inc",1,633.000135
2,"2020-02-03_18h01.25.314",14,"test","bigHsmallH.png","H","H","down_right",0.2,-0.2,"h","h","loc","con",1,569.999933
2,"2020-02-03_18h01.25.314",15,"test","bigSsmallH.png","H","S","up_right",0.2,0.2,"h","h","loc","inc",1,638.000011
2,"2020-02-03_18h01.25.314",16,"test","bigHsmallS.png","S","H","down_right",0.2,-0.2,"s","s","loc","inc",1,703.999996
2,"2020-02-03_18h01.25.314",17,"test","bigHsmallS.png","S","H","down_left",-0.2,-0.2,"s","s","loc","inc",1,1219.000101
2,"2020-02-03_18h01.25.314",18,"test","bigSsmallS.png","S","S","down_left",-0.2,-0.2,"s","s","loc","con",1,570.000172
2,"2020-02-03_18h01.25.314",19,"test","bigHsmallH.png","H","H","up_right",0.2,0.2,"h","h","loc","con",1,704.999924
2,"2020-02-03_18h01.25.314",20,"test","bigHsmallH.png","H","H","down_right",0.2,-0.2,"h","h","loc","con",1,753.999949
2,"2020-02-03_18h01.25.314",21,"test","bigHsmallS.png","S","H","down_right",0.2,-0.2,"s","s","loc","inc",1,638.000011
2,"2020-02-03_18h01.25.314",22,"test","bigSsmallH.png","H","S","down_left",-0.2,-0.2,"h","h","loc","inc",1,1353.000164
2,"2020-02-03_18h01.25.314",23,"test","bigHsmallS.png","S","H","up_right",0.2,0.2,"s","s","loc","inc",1,853.999853
2,"2020-02-03_18h01.25.314",24,"test","bigHsmallH.png","H","H","up_left",-0.2,0.2,"h","h","loc","con",1,1354.000092
2,"2020-02-03_18h01.25.314",25,"test","bigSsmallH.png","H","S","up_right",0.2,0.2,"h","h","loc","inc",1,753.999949
2,"2020-02-03_18h01.25.314",26,"test","bigHsmallS.png","S","H","up_left",-0.2,0.2,"s","s","loc","inc",1,638.000011
2,"2020-02-03_18h01.25.314",27,"test","bigSsmallH.png","H","S","up_left",-0.2,0.2,"h","h","loc","inc",1,803.999901
2,"2020-02-03_18h01.25.314",28,"test","bigSsmallH.png","H","S","down_right",0.2,-0.2,"h","h","loc","inc",1,635.999918
2,"2020-02-03_18h01.25.314",29,"test","bigSsmallS.png","S","S","up_right",0.2,0.2,"s","s","loc","con",1,736.000061
2,"2020-02-03_18h01.25.314",30,"test","bigHsmallH.png","H","H","down_left",-0.2,-0.2,"h","h","loc","con",1,634.99999
2,"2020-02-03_18h01.25.314",31,"test","bigSsmallS.png","S","S","up_left",-0.2,0.2,"s","s","loc","con",1,801.000118
2,"2020-02-03_18h01.25.314",32,"test","bigSsmallS.png","S","S","down_right",0.2,-0.2,"s","s","loc","con",1,803.000212
2,"2020-02-03_18h01.25.314",33,"test","bigHsmallH.png","H","H","down_left",-0.2,-0.2,"h","h","loc","con",1,1036.000013
2,"2020-02-03_18h01.25.314",34,"test","bigHsmallH.png","H","H","up_left",-0.2,0.2,"h","h","loc","con",1,686.000109
2,"2020-02-03_18h01.25.314",35,"test","bigSsmallH.png","H","S","down_left",-0.2,-0.2,"h","h","loc","inc",1,1004.999876
2,"2020-02-03_18h01.25.314",36,"test","bigHsmallH.png","H","H","up_right",0.2,0.2,"h","h","loc","con",1,881.000042
2,"2020-02-03_18h01.25.314",37,"test","bigSsmallH.png","H","S","up_right",0.2,0.2,"h","h","loc","inc",1,671.000004
2,"2020-02-03_18h01.25.314",38,"test","bigSsmallS.png","S","S","up_left",-0.2,0.2,"s","s","loc","con",1,854.000092
2,"2020-02-03_18h01.25.314",39,"test","bigSsmallH.png","H","S","up_left",-0.2,0.2,"h","h","loc","inc",1,869.999886
2,"2020-02-03_18h01.25.314",40,"test","bigSsmallH.png","H","S","down_right",0.2,-0.2,"h","h","loc","inc",1,571.000099
2,"2020-02-03_18h01.25.314",41,"test","bigSsmallS.png","S","S","down_right",0.2,-0.2,"s","s","loc","con",1,620.000124
2,"2020-02-03_18h01.25.314",42,"test","bigHsmallS.png","S","H","down_right",0.2,-0.2,"s","s","loc","inc",1,1036.999941
2,"2020-02-03_18h01.25.314",43,"test","bigSsmallS.png","S","S","up_right",0.2,0.2,"s","s","loc","con",1,571.000099
2,"2020-02-03_18h01.25.314",44,"test","bigHsmallH.png","H","H","down_right",0.2,-0.2,"h","h","loc","con",1,736.000061
2,"2020-02-03_18h01.25.314",45,"test","bigHsmallS.png","S","H","up_right",0.2,0.2,"s","s","loc","inc",1,786.999941
2,"2020-02-03_18h01.25.314",46,"test","bigHsmallS.png","S","H","down_left",-0.2,-0.2,"s","s","loc","inc",1,619.999886
2,"2020-02-03_18h01.25.314",47,"test","bigHsmallS.png","S","H","up_left",-0.2,0.2,"s","s","loc","inc",1,719.99979
2,"2020-02-03_18h01.25.314",48,"test","bigSsmallS.png","S","S","down_left",-0.2,-0.2,"s","s","loc","con",1,594.000101
2,"2020-02-03_18h01.25.314",49,"test","bigSsmallH.png","H","S","down_right",0.2,-0.2,"h","h","loc","inc",1,837.000132
2,"2020-02-03_18h01.25.314",50,"test","bigHsmallS.png","S","H","up_left",-0.2,0.2,"s","s","loc","inc",1,585.999966
2,"2020-02-03_18h01.25.314",51,"test","bigHsmallH.png","H","H","up_right",0.2,0.2,"h","h","loc","con",1,669.999838
2,"2020-02-03_18h01.25.314",52,"test","bigSsmallS.png","S","S","up_left",-0.2,0.2,"s","s","loc","con",1,788.000107
2,"2020-02-03_18h01.25.314",53,"test","bigHsmallH.png","H","H","up_left",-0.2,0.2,"h","h","loc","con",1,601.999998
2,"2020-02-03_18h01.25.314",54,"test","bigSsmallS.png","S","S","down_right",0.2,-0.2,"s","s","loc","con",1,802.000046
2,"2020-02-03_18h01.25.314",55,"test","bigHsmallS.png","S","H","down_left",-0.2,-0.2,"s","s","loc","inc",1,486.000061
2,"2020-02-03_18h01.25.314",56,"test","bigSsmallH.png","H","S","down_left",-0.2,-0.2,"h","h","loc","inc",1,671.000004
2,"2020-02-03_18h01.25.314",57,"test","bigHsmallH.png","H","H","down_right",0.2,-0.2,"h","h","loc","con",1,602.999926
2,"2020-02-03_18h01.25.314",58,"test","bigSsmallH.png","H","S","up_left",-0.2,0.2,"h","h","loc","inc",1,753.000021
2,"2020-02-03_18h01.25.314",59,"test","bigSsmallS.png","S","S","down_left",-0.2,-0.2,"s","s","loc","con",1,552.999973
2,"2020-02-03_18h01.25.314",60,"test","bigHsmallS.png","S","H","down_right",0.2,-0.2,"s","s","loc","inc",1,803.000212
2,"2020-02-03_18h01.25.314",61,"test","bigSsmallS.png","S","S","up_right",0.2,0.2,"s","s","loc","con",1,569.999933
2,"2020-02-03_18h01.25.314",62,"test","bigHsmallS.png","S","H","up_right",0.2,0.2,"s","s","loc","inc",1,670.000076
2,"2020-02-03_18h01.25.314",63,"test","bigHsmallH.png","H","H","down_left",-0.2,-0.2,"h","h","loc","con",1,621.000051
2,"2020-02-03_18h01.25.314",64,"test","bigSsmallH.png","H","S","up_right",0.2,0.2,"h","h","loc","inc",1,753.999949
2,"2020-02-03_18h01.25.314",65,"test","bigHsmallS.png","S","H","down_right",0.2,-0.2,"s","s","loc","inc",1,753.999949
2,"2020-02-03_18h01.25.314",66,"test","bigSsmallH.png","H","S","up_left",-0.2,0.2,"h","h","loc","inc",1,653.999805
2,"2020-02-03_18h01.25.314",67,"test","bigSsmallH.png","H","S","up_right",0.2,0.2,"h","h","loc","inc",1,670.000076
2,"2020-02-03_18h01.25.314",68,"test","bigSsmallS.png","S","S","down_left",-0.2,-0.2,"s","s","loc","con",1,703.999996
2,"2020-02-03_18h01.25.314",69,"test","bigHsmallH.png","H","H","down_left",-0.2,-0.2,"h","h","loc","con",1,619.999886
2,"2020-02-03_18h01.25.314",70,"test","bigHsmallH.png","H","H","down_right",0.2,-0.2,"h","h","loc","con",1,505.000114
2,"2020-02-03_18h01.25.314",71,"test","bigSsmallS.png","S","S","up_left",-0.2,0.2,"s","s","loc","con",1,605.000019
2,"2020-02-03_18h01.25.314",72,"test","bigHsmallS.png","S","H","up_right",0.2,0.2,"s","s","loc","inc",1,636.999846
2,"2020-02-03_18h01.25.314",73,"test","bigHsmallH.png","H","H","up_right",0.2,0.2,"h","h","loc","con",1,718.999863
2,"2020-02-03_18h01.25.314",74,"test","bigSsmallS.png","S","S","down_right",0.2,-0.2,"s","s","loc","con",1,1171.000004
2,"2020-02-03_18h01.25.314",75,"test","bigHsmallS.png","S","H","up_left",-0.2,0.2,"s","s","loc","inc",1,569.000006
2,"2020-02-03_18h01.25.314",76,"test","bigSsmallH.png","H","S","down_left",-0.2,-0.2,"h","h","loc","inc",1,668.99991
2,"2020-02-03_18h01.25.314",77,"test","bigSsmallS.png","S","S","up_right",0.2,0.2,"s","s","loc","con",1,637.000084
2,"2020-02-03_18h01.25.314",78,"test","bigHsmallH.png","H","H","up_left",-0.2,0.2,"h","h","loc","con",1,686.000109
2,"2020-02-03_18h01.25.314",79,"test","bigHsmallS.png","S","H","down_left",-0.2,-0.2,"s","s","loc","inc",1,970.000029
2,"2020-02-03_18h01.25.314",80,"test","bigSsmallH.png","H","S","down_right",0.2,-0.2,"h","h","loc","inc",1,685.99987
2,"2020-02-03_18h01.25.314",81,"test","bigHsmallS.png","S","H","up_left",-0.2,0.2,"s","s","loc","inc",1,986.999989
2,"2020-02-03_18h01.25.314",82,"test","bigHsmallH.png","H","H","up_left",-0.2,0.2,"h","h","loc","con",1,635.999918
2,"2020-02-03_18h01.25.314",83,"test","bigHsmallS.png","S","H","down_left",-0.2,-0.2,"s","s","loc","inc",1,821.000099
2,"2020-02-03_18h01.25.314",84,"test","bigSsmallH.png","H","S","up_right",0.2,0.2,"h","h","loc","inc",1,618.999958
2,"2020-02-03_18h01.25.314",85,"test","bigHsmallS.png","S","H","down_right",0.2,-0.2,"s","s","loc","inc",1,737.999916
2,"2020-02-03_18h01.25.314",86,"test","bigSsmallS.png","S","S","down_right",0.2,-0.2,"s","s","loc","con",1,569.999933
2,"2020-02-03_18h01.25.314",87,"test","bigSsmallH.png","H","S","down_left",-0.2,-0.2,"h","h","loc","inc",1,1085.999966
2,"2020-02-03_18h01.25.314",88,"test","bigSsmallS.png","S","S","up_right",0.2,0.2,"s","s","loc","con",1,751.999855
2,"2020-02-03_18h01.25.314",89,"test","bigSsmallH.png","H","S","up_left",-0.2,0.2,"h","h","loc","inc",1,818.000078
2,"2020-02-03_18h01.25.314",90,"test","bigHsmallH.png","H","H","up_right",0.2,0.2,"h","h","loc","con",1,1052.999973
2,"2020-02-03_18h01.25.314",91,"test","bigHsmallH.png","H","H","down_left",-0.2,-0.2,"h","h","loc","con",1,602.999926
2,"2020-02-03_18h01.25.314",92,"test","bigHsmallS.png","S","H","up_right",0.2,0.2,"s","s","loc","inc",1,552.999973
2,"2020-02-03_18h01.25.314",93,"test","bigSsmallH.png","H","S","down_right",0.2,-0.2,"h","h","loc","inc",1,617.999792
2,"2020-02-03_18h01.25.314",94,"test","bigSsmallS.png","S","S","up_left",-0.2,0.2,"s","s","loc","con",1,638.000011
2,"2020-02-03_18h01.25.314",95,"test","bigSsmallS.png","S","S","down_left",-0.2,-0.2,"s","s","loc","con",1,486.000061
2,"2020-02-03_18h01.25.314",96,"test","bigHsmallH.png","H","H","down_right",0.2,-0.2,"h","h","loc","con",1,586.999893
2,"2020-02-03_18h01.25.314",97,"test","bigSsmallH.png","H","S","up_left",-0.2,0.2,"s","s","glo","inc",1,520.000219
2,"2020-02-03_18h01.25.314",98,"test","bigHsmallS.png","S","H","up_left",-0.2,0.2,"h","h","glo","inc",1,521.999836
2,"2020-02-03_18h01.25.314",99,"test","bigSsmallS.png","S","S","down_right",0.2,-0.2,"s","s","glo","con",1,588.000059
2,"2020-02-03_18h01.25.314",100,"test","bigHsmallS.png","S","H","up_right",0.2,0.2,"h","h","glo","inc",1,419.000149
2,"2020-02-03_18h01.25.314",101,"test","bigHsmallH.png","H","H","up_left",-0.2,0.2,"h","h","glo","con",1,504.999876
2,"2020-02-03_18h01.25.314",102,"test","bigSsmallH.png","H","S","down_left",-0.2,-0.2,"s","s","glo","inc",1,520.999908
2,"2020-02-03_18h01.25.314",103,"test","bigHsmallH.png","H","H","up_right",0.2,0.2,"h","h","glo","con",1,420.000076
2,"2020-02-03_18h01.25.314",104,"test","bigSsmallH.png","H","S","down_right",0.2,-0.2,"s","s","glo","inc",1,519.999981
2,"2020-02-03_18h01.25.314",105,"test","bigHsmallS.png","S","H","down_right",0.2,-0.2,"h","h","glo","inc",1,385.999918
2,"2020-02-03_18h01.25.314",106,"test","bigSsmallS.png","S","S","up_left",-0.2,0.2,"s","s","glo","con",1,369.999886
2,"2020-02-03_18h01.25.314",107,"test","bigHsmallH.png","H","H","down_right",0.2,-0.2,"h","h","glo","con",1,369.999886
2,"2020-02-03_18h01.25.314",108,"test","bigSsmallS.png","S","S","down_left",-0.2,-0.2,"s","s","glo","con",1,437.000036
2,"2020-02-03_18h01.25.314",109,"test","bigHsmallH.png","H","H","down_left",-0.2,-0.2,"h","h","glo","con",1,554.000139
2,"2020-02-03_18h01.25.314",110,"test","bigHsmallS.png","S","H","down_left",-0.2,-0.2,"h","h","glo","inc",1,637.000084
2,"2020-02-03_18h01.25.314",111,"test","bigSsmallS.png","S","S","up_right",0.2,0.2,"s","s","glo","con",1,636.999846
2,"2020-02-03_18h01.25.314",112,"test","bigSsmallH.png","H","S","up_right",0.2,0.2,"s","s","glo","inc",1,569.999933
2,"2020-02-03_18h01.25.314",113,"test","bigSsmallS.png","S","S","up_right",0.2,0.2,"s","s","glo","con",1,703.000069
2,"2020-02-03_18h01.25.314",114,"test","bigHsmallH.png","H","H","down_left",-0.2,-0.2,"h","h","glo","con",1,504.000187
2,"2020-02-03_18h01.25.314",115,"test","bigSsmallH.png","H","S","up_right",0.2,0.2,"s","s","glo","inc",1,552.999973
2,"2020-02-03_18h01.25.314",116,"test","bigSsmallH.png","H","S","down_left",-0.2,-0.2,"s","s","glo","inc",1,486.999989
2,"2020-02-03_18h01.25.314",117,"test","bigSsmallS.png","S","S","down_right",0.2,-0.2,"s","s","glo","con",1,505.000114
2,"2020-02-03_18h01.25.314",118,"test","bigSsmallS.png","S","S","down_left",-0.2,-0.2,"s","s","glo","con",1,669.999838
2,"2020-02-03_18h01.25.314",119,"test","bigHsmallH.png","H","H","down_right",0.2,-0.2,"h","h","glo","con",1,401.99995
2,"2020-02-03_18h01.25.314",120,"test","bigSsmallH.png","H","S","down_right",0.2,-0.2,"s","s","glo","inc",1,636.000156
2,"2020-02-03_18h01.25.314",121,"test","bigHsmallS.png","S","H","down_left",-0.2,-0.2,"h","h","glo","inc",1,554.999828
2,"2020-02-03_18h01.25.314",122,"test","bigHsmallS.png","S","H","down_right",0.2,-0.2,"h","h","glo","inc",1,537.000179
2,"2020-02-03_18h01.25.314",123,"test","bigHsmallH.png","H","H","up_left",-0.2,0.2,"h","h","glo","con",1,670.000076
2,"2020-02-03_18h01.25.314",124,"test","bigSsmallH.png","H","S","up_left",-0.2,0.2,"s","s","glo","inc",1,620.000124
2,"2020-02-03_18h01.25.314",125,"test","bigHsmallS.png","S","H","up_right",0.2,0.2,"h","h","glo","inc",1,419.999838
2,"2020-02-03_18h01.25.314",126,"test","bigHsmallH.png","H","H","up_right",0.2,0.2,"h","h","glo","con",1,1071.000099
2,"2020-02-03_18h01.25.314",127,"test","bigSsmallS.png","S","S","up_left",-0.2,0.2,"s","s","glo","con",1,653.000116
2,"2020-02-03_18h01.25.314",128,"test","bigHsmallS.png","S","H","up_left",-0.2,0.2,"h","h","glo","inc",1,703.000069
2,"2020-02-03_18h01.25.314",129,"test","bigSsmallS.png","S","S","down_left",-0.2,-0.2,"s","s","glo","con",1,736.000061
2,"2020-02-03_18h01.25.314",130,"test","bigHsmallS.png","S","H","up_right",0.2,0.2,"h","h","glo","inc",1,438.000202
2,"2020-02-03_18h01.25.314",131,"test","bigSsmallS.png","S","S","down_right",0.2,-0.2,"s","s","glo","con",1,654.000044
2,"2020-02-03_18h01.25.314",132,"test","bigHsmallH.png","H","H","up_right",0.2,0.2,"h","h","glo","con",1,569.999933
2,"2020-02-03_18h01.25.314",133,"test","bigSsmallS.png","S","S","up_right",0.2,0.2,"s","s","glo","con",1,502.999783
2,"2020-02-03_18h01.25.314",134,"test","bigHsmallS.png","S","H","down_left",-0.2,-0.2,"h","h","glo","inc",1,602.999926
2,"2020-02-03_18h01.25.314",135,"test","bigHsmallS.png","S","H","down_right",0.2,-0.2,"h","h","glo","inc",1,587.000132
2,"2020-02-03_18h01.25.314",136,"test","bigHsmallH.png","H","H","down_left",-0.2,-0.2,"h","h","glo","con",1,553.999901
2,"2020-02-03_18h01.25.314",137,"test","bigHsmallH.png","H","H","up_left",-0.2,0.2,"h","h","glo","con",1,586.999893
2,"2020-02-03_18h01.25.314",138,"test","bigHsmallH.png","H","H","down_right",0.2,-0.2,"h","h","glo","con",1,453.999996
2,"2020-02-03_18h01.25.314",139,"test","bigSsmallH.png","H","S","down_left",-0.2,-0.2,"s","s","glo","inc",1,435.99987
2,"2020-02-03_18h01.25.314",140,"test","bigHsmallS.png","S","H","up_left",-0.2,0.2,"h","h","glo","inc",1,552.999973
2,"2020-02-03_18h01.25.314",141,"test","bigSsmallH.png","H","S","down_right",0.2,-0.2,"s","s","glo","inc",1,536.999941
2,"2020-02-03_18h01.25.314",142,"test","bigSsmallS.png","S","S","up_left",-0.2,0.2,"s","s","glo","con",1,503.999949
2,"2020-02-03_18h01.25.314",143,"test","bigSsmallH.png","H","S","up_right",0.2,0.2,"s","s","glo","inc",1,470.000029
2,"2020-02-03_18h01.25.314",144,"test","bigSsmallH.png","H","S","up_left",-0.2,0.2,"s","s","glo","inc",1,419.999838
2,"2020-02-03_18h01.25.314",145,"test","bigHsmallH.png","H","H","down_right",0.2,-0.2,"h","h","glo","con",1,470.999956
2,"2020-02-03_18h01.25.314",146,"test","bigHsmallH.png","H","H","down_left",-0.2,-0.2,"h","h","glo","con",1,620.000124
2,"2020-02-03_18h01.25.314",147,"test","bigHsmallH.png","H","H","up_left",-0.2,0.2,"h","h","glo","con",1,387.000084
2,"2020-02-03_18h01.25.314",148,"test","bigSsmallS.png","S","S","up_left",-0.2,0.2,"s","s","glo","con",1,569.999933
2,"2020-02-03_18h01.25.314",149,"test","bigHsmallS.png","S","H","down_left",-0.2,-0.2,"h","h","glo","inc",1,403.999805
2,"2020-02-03_18h01.25.314",150,"test","bigSsmallS.png","S","S","up_right",0.2,0.2,"s","s","glo","con",1,585.999966
2,"2020-02-03_18h01.25.314",151,"test","bigHsmallS.png","S","H","up_left",-0.2,0.2,"h","h","glo","inc",1,522.000074
2,"2020-02-03_18h01.25.314",152,"test","bigSsmallH.png","H","S","down_left",-0.2,-0.2,"s","s","glo","inc",1,503.999949
2,"2020-02-03_18h01.25.314",153,"test","bigSsmallS.png","S","S","down_left",-0.2,-0.2,"s","s","glo","con",1,470.000029
2,"2020-02-03_18h01.25.314",154,"test","bigSsmallH.png","H","S","up_left",-0.2,0.2,"s","s","glo","inc",1,453.999996
2,"2020-02-03_18h01.25.314",155,"test","bigSsmallH.png","H","S","down_right",0.2,-0.2,"s","s","glo","inc",1,460.000038
2,"2020-02-03_18h01.25.314",156,"test","bigSsmallS.png","S","S","down_right",0.2,-0.2,"s","s","glo","con",1,520.999908
2,"2020-02-03_18h01.25.314",157,"test","bigHsmallH.png","H","H","up_right",0.2,0.2,"h","h","glo","con",1,520.000219
2,"2020-02-03_18h01.25.314",158,"test","bigHsmallS.png","S","H","down_right",0.2,-0.2,"h","h","glo","inc",1,469.000101
2,"2020-02-03_18h01.25.314",159,"test","bigSsmallH.png","H","S","up_right",0.2,0.2,"s","s","glo","inc",1,555.000067
2,"2020-02-03_18h01.25.314",160,"test","bigHsmallS.png","S","H","up_right",0.2,0.2,"h","h","glo","inc",1,754.000187
2,"2020-02-03_18h01.25.314",161,"test","bigSsmallS.png","S","S","down_left",-0.2,-0.2,"s","s","glo","con",1,454.999924
2,"2020-02-03_18h01.25.314",162,"test","bigHsmallH.png","H","H","up_left",-0.2,0.2,"h","s","glo","con",0,386.000156
2,"2020-02-03_18h01.25.314",163,"test","bigSsmallH.png","H","S","down_left",-0.2,-0.2,"s","s","glo","inc",1,736.999989
2,"2020-02-03_18h01.25.314",164,"test","bigHsmallS.png","S","H","down_right",0.2,-0.2,"h","h","glo","inc",1,469.99979
2,"2020-02-03_18h01.25.314",165,"test","bigSsmallH.png","H","S","down_right",0.2,-0.2,"s","s","glo","inc",1,736.999989
2,"2020-02-03_18h01.25.314",166,"test","bigHsmallS.png","S","H","up_left",-0.2,0.2,"h","h","glo","inc",1,503.999949
2,"2020-02-03_18h01.25.314",167,"test","bigHsmallH.png","H","H","up_right",0.2,0.2,"h","h","glo","con",1,486.999989
2,"2020-02-03_18h01.25.314",168,"test","bigSsmallS.png","S","S","down_right",0.2,-0.2,"s","s","glo","con",1,554.000139
2,"2020-02-03_18h01.25.314",169,"test","bigHsmallH.png","H","H","down_left",-0.2,-0.2,"h","s","glo","con",0,486.999989
2,"2020-02-03_18h01.25.314",170,"test","bigHsmallS.png","S","H","down_left",-0.2,-0.2,"h","h","glo","inc",1,1103.000164
2,"2020-02-03_18h01.25.314",171,"test","bigSsmallS.png","S","S","up_left",-0.2,0.2,"s","s","glo","con",1,604.000092
2,"2020-02-03_18h01.25.314",172,"test","bigHsmallS.png","S","H","up_right",0.2,0.2,"h","h","glo","inc",1,405.00021
2,"2020-02-03_18h01.25.314",173,"test","bigHsmallH.png","H","H","down_right",0.2,-0.2,"h","h","glo","con",1,569.000006
2,"2020-02-03_18h01.25.314",174,"test","bigSsmallS.png","S","S","up_right",0.2,0.2,"s","s","glo","con",1,921.000004
2,"2020-02-03_18h01.25.314",175,"test","bigSsmallH.png","H","S","up_left",-0.2,0.2,"s","s","glo","inc",1,833.000183
2,"2020-02-03_18h01.25.314",176,"test","bigSsmallH.png","H","S","up_right",0.2,0.2,"s","s","glo","inc",1,635.999918
2,"2020-02-03_18h01.25.314",177,"test","bigSsmallS.png","S","S","down_right",0.2,-0.2,"s","s","glo","con",1,570.999861
2,"2020-02-03_18h01.25.314",178,"test","bigHsmallS.png","S","H","up_left",-0.2,0.2,"h","h","glo","inc",1,603.000164
2,"2020-02-03_18h01.25.314",179,"test","bigHsmallH.png","H","H","up_right",0.2,0.2,"h","h","glo","con",1,503.999949
2,"2020-02-03_18h01.25.314",180,"test","bigHsmallH.png","H","H","down_left",-0.2,-0.2,"h","h","glo","con",1,486.999989
2,"2020-02-03_18h01.25.314",181,"test","bigSsmallH.png","H","S","up_left",-0.2,0.2,"s","s","glo","inc",1,769.999981
2,"2020-02-03_18h01.25.314",182,"test","bigSsmallS.png","S","S","down_left",-0.2,-0.2,"s","s","glo","con",1,421.000004
2,"2020-02-03_18h01.25.314",183,"test","bigSsmallH.png","H","S","down_right",0.2,-0.2,"s","s","glo","inc",1,537.000179
2,"2020-02-03_18h01.25.314",184,"test","bigSsmallH.png","H","S","down_left",-0.2,-0.2,"s","s","glo","inc",1,415.0002
2,"2020-02-03_18h01.25.314",185,"test","bigHsmallS.png","S","H","down_left",-0.2,-0.2,"h","h","glo","inc",1,587.999821
2,"2020-02-03_18h01.25.314",186,"test","bigHsmallS.png","S","H","up_right",0.2,0.2,"h","h","glo","inc",1,470.000029
2,"2020-02-03_18h01.25.314",187,"test","bigSsmallS.png","S","S","up_left",-0.2,0.2,"s","s","glo","con",1,736.999989
2,"2020-02-03_18h01.25.314",188,"test","bigHsmallH.png","H","H","up_left",-0.2,0.2,"h","h","glo","con",1,620.000124
2,"2020-02-03_18h01.25.314",189,"test","bigSsmallS.png","S","S","up_right",0.2,0.2,"s","s","glo","con",1,536.000013
2,"2020-02-03_18h01.25.314",190,"test","bigSsmallH.png","H","S","up_right",0.2,0.2,"s","s","glo","inc",1,621.000051
2,"2020-02-03_18h01.25.314",191,"test","bigHsmallS.png","S","H","down_right",0.2,-0.2,"h","h","glo","inc",1,687.999964
2,"2020-02-03_18h01.25.314",192,"test","bigHsmallH.png","H","H","down_right",0.2,-0.2,"h","h","glo","con",1,485.999823
3,"2020-02-03_18h20.49.560",NA,"practice","bigSsmallH.png","H","S","up_left",-0.2,0.2,"s","s","glo","inc",1,6331.00009
3,"2020-02-03_18h20.49.560",NA,"practice","bigHsmallH.png","H","H","up_right",0.2,0.2,"h","h","glo","con",1,2910.000086
3,"2020-02-03_18h20.49.560",NA,"practice","bigSsmallH.png","H","S","down_right",0.2,-0.2,"s","s","glo","inc",1,937.999964
3,"2020-02-03_18h20.49.560",NA,"practice","bigSsmallH.png","H","S","up_right",0.2,0.2,"s","s","glo","inc",1,808.000088
3,"2020-02-03_18h20.49.560",NA,"practice","bigHsmallS.png","S","H","down_left",-0.2,-0.2,"h","h","glo","inc",1,1171.000004
3,"2020-02-03_18h20.49.560",NA,"practice","bigHsmallS.png","S","H","down_right",0.2,-0.2,"h","h","glo","inc",1,802.000046
3,"2020-02-03_18h20.49.560",NA,"practice","bigHsmallS.png","S","H","up_left",-0.2,0.2,"h","h","glo","inc",1,970.000029
3,"2020-02-03_18h20.49.560",NA,"practice","bigSsmallH.png","H","S","down_left",-0.2,-0.2,"s","s","glo","inc",1,704.999924
3,"2020-02-03_18h20.49.560",NA,"practice","bigSsmallH.png","H","S","down_right",0.2,-0.2,"h","s","loc","inc",0,853.000164
3,"2020-02-03_18h20.49.560",NA,"practice","bigHsmallS.png","S","H","down_left",-0.2,-0.2,"s","s","loc","inc",1,1369.999886
3,"2020-02-03_18h20.49.560",NA,"practice","bigHsmallS.png","S","H","down_right",0.2,-0.2,"s","s","loc","inc",1,1453.000069
3,"2020-02-03_18h20.49.560",NA,"practice","bigHsmallH.png","H","H","up_right",0.2,0.2,"h","h","loc","con",1,1286.999941
3,"2020-02-03_18h20.49.560",NA,"practice","bigSsmallH.png","H","S","down_left",-0.2,-0.2,"h","h","loc","inc",1,1203.000069
3,"2020-02-03_18h20.49.560",NA,"practice","bigSsmallH.png","H","S","up_left",-0.2,0.2,"h","h","loc","inc",1,1937.000036
3,"2020-02-03_18h20.49.560",NA,"practice","bigHsmallS.png","S","H","up_left",-0.2,0.2,"s","h","loc","inc",0,3683.000088
3,"2020-02-03_18h20.49.560",NA,"practice","bigSsmallH.png","H","S","up_right",0.2,0.2,"h","h","loc","inc",1,2534.999847
3,"2020-02-03_18h20.49.560",1,"test","bigHsmallS.png","S","H","down_left",-0.2,-0.2,"h","h","glo","inc",1,953.000069
3,"2020-02-03_18h20.49.560",2,"test","bigSsmallH.png","H","S","up_right",0.2,0.2,"s","s","glo","inc",1,453.999996
3,"2020-02-03_18h20.49.560",3,"test","bigSsmallS.png","S","S","up_left",-0.2,0.2,"s","s","glo","con",1,547.00017
3,"2020-02-03_18h20.49.560",4,"test","bigSsmallH.png","H","S","up_left",-0.2,0.2,"s","s","glo","inc",1,521.000147
3,"2020-02-03_18h20.49.560",5,"test","bigSsmallS.png","S","S","down_left",-0.2,-0.2,"s","s","glo","con",1,653.000116
3,"2020-02-03_18h20.49.560",6,"test","bigSsmallH.png","H","S","down_right",0.2,-0.2,"s","s","glo","inc",1,618.999958
3,"2020-02-03_18h20.49.560",7,"test","bigSsmallS.png","S","S","down_right",0.2,-0.2,"s","s","glo","con",1,753.999949
3,"2020-02-03_18h20.49.560",8,"test","bigHsmallH.png","H","H","down_left",-0.2,-0.2,"h","h","glo","con",1,718.999863
3,"2020-02-03_18h20.49.560",9,"test","bigHsmallH.png","H","H","down_right",0.2,-0.2,"h","h","glo","con",1,1153.000116
3,"2020-02-03_18h20.49.560",10,"test","bigHsmallS.png","S","H","up_left",-0.2,0.2,"h","h","glo","inc",1,786.999941
3,"2020-02-03_18h20.49.560",11,"test","bigHsmallH.png","H","H","up_left",-0.2,0.2,"h","h","glo","con",1,671.000004
3,"2020-02-03_18h20.49.560",12,"test","bigHsmallH.png","H","H","up_right",0.2,0.2,"h","h","glo","con",1,737.999916
3,"2020-02-03_18h20.49.560",13,"test","bigHsmallS.png","S","H","up_right",0.2,0.2,"h","h","glo","inc",1,652.999878
3,"2020-02-03_18h20.49.560",14,"test","bigSsmallS.png","S","S","up_right",0.2,0.2,"s","s","glo","con",1,634.99999
3,"2020-02-03_18h20.49.560",15,"test","bigSsmallH.png","H","S","down_left",-0.2,-0.2,"s","s","glo","inc",1,969.000101
3,"2020-02-03_18h20.49.560",16,"test","bigHsmallS.png","S","H","down_right",0.2,-0.2,"h","h","glo","inc",1,638.000011
3,"2020-02-03_18h20.49.560",17,"test","bigHsmallS.png","S","H","up_left",-0.2,0.2,"h","h","glo","inc",1,686.999798
3,"2020-02-03_18h20.49.560",18,"test","bigSsmallH.png","H","S","down_left",-0.2,-0.2,"s","s","glo","inc",1,720.000029
3,"2020-02-03_18h20.49.560",19,"test","bigSsmallH.png","H","S","down_right",0.2,-0.2,"s","s","glo","inc",1,703.999996
3,"2020-02-03_18h20.49.560",20,"test","bigSsmallS.png","S","S","up_right",0.2,0.2,"s","s","glo","con",1,603.999853
3,"2020-02-03_18h20.49.560",21,"test","bigSsmallS.png","S","S","down_left",-0.2,-0.2,"s","s","glo","con",1,635.999918
3,"2020-02-03_18h20.49.560",22,"test","bigSsmallH.png","H","S","up_right",0.2,0.2,"s","s","glo","inc",1,538.000107
3,"2020-02-03_18h20.49.560",23,"test","bigHsmallH.png","H","H","down_right",0.2,-0.2,"h","h","glo","con",1,587.000132
3,"2020-02-03_18h20.49.560",24,"test","bigHsmallH.png","H","H","up_right",0.2,0.2,"h","h","glo","con",1,586.999893
3,"2020-02-03_18h20.49.560",25,"test","bigSsmallH.png","H","S","up_left",-0.2,0.2,"s","s","glo","inc",1,587.000132
3,"2020-02-03_18h20.49.560",26,"test","bigSsmallS.png","S","S","down_right",0.2,-0.2,"s","s","glo","con",1,520.000219
3,"2020-02-03_18h20.49.560",27,"test","bigSsmallS.png","S","S","up_left",-0.2,0.2,"s","s","glo","con",1,585.999966
3,"2020-02-03_18h20.49.560",28,"test","bigHsmallS.png","S","H","up_right",0.2,0.2,"h","h","glo","inc",1,587.000132
3,"2020-02-03_18h20.49.560",29,"test","bigHsmallS.png","S","H","down_left",-0.2,-0.2,"h","h","glo","inc",1,671.000004
3,"2020-02-03_18h20.49.560",30,"test","bigHsmallS.png","S","H","down_right",0.2,-0.2,"h","h","glo","inc",1,687.999964
3,"2020-02-03_18h20.49.560",31,"test","bigHsmallH.png","H","H","down_left",-0.2,-0.2,"h","h","glo","con",1,654.000044
3,"2020-02-03_18h20.49.560",32,"test","bigHsmallH.png","H","H","up_left",-0.2,0.2,"h","h","glo","con",1,1085.999966
3,"2020-02-03_18h20.49.560",33,"test","bigHsmallS.png","S","H","down_right",0.2,-0.2,"h","h","glo","inc",1,604.000092
3,"2020-02-03_18h20.49.560",34,"test","bigHsmallS.png","S","H","up_right",0.2,0.2,"h","h","glo","inc",1,572.000027
3,"2020-02-03_18h20.49.560",35,"test","bigHsmallH.png","H","H","down_left",-0.2,-0.2,"h","h","glo","con",1,669.000149
3,"2020-02-03_18h20.49.560",36,"test","bigHsmallH.png","H","H","down_right",0.2,-0.2,"h","h","glo","con",1,786.000013
3,"2020-02-03_18h20.49.560",37,"test","bigHsmallS.png","S","H","up_left",-0.2,0.2,"h","h","glo","inc",1,853.000164
3,"2020-02-03_18h20.49.560",38,"test","bigHsmallH.png","H","H","up_right",0.2,0.2,"h","h","glo","con",1,690.999985
3,"2020-02-03_18h20.49.560",39,"test","bigSsmallS.png","S","S","down_right",0.2,-0.2,"s","s","glo","con",1,636.000156
3,"2020-02-03_18h20.49.560",40,"test","bigSsmallS.png","S","S","down_left",-0.2,-0.2,"s","s","glo","con",1,870.000124
3,"2020-02-03_18h20.49.560",41,"test","bigSsmallH.png","H","S","down_left",-0.2,-0.2,"s","s","glo","inc",1,668.99991
3,"2020-02-03_18h20.49.560",42,"test","bigSsmallH.png","H","S","up_right",0.2,0.2,"s","s","glo","inc",1,636.999846
3,"2020-02-03_18h20.49.560",43,"test","bigHsmallH.png","H","H","up_left",-0.2,0.2,"h","h","glo","con",1,569.000006
3,"2020-02-03_18h20.49.560",44,"test","bigHsmallS.png","S","H","down_left",-0.2,-0.2,"h","h","glo","inc",1,736.000061
3,"2020-02-03_18h20.49.560",45,"test","bigSsmallS.png","S","S","up_left",-0.2,0.2,"s","s","glo","con",1,1081.00009
3,"2020-02-03_18h20.49.560",46,"test","bigSsmallH.png","H","S","up_left",-0.2,0.2,"s","s","glo","inc",1,720.000029
3,"2020-02-03_18h20.49.560",47,"test","bigSsmallS.png","S","S","up_right",0.2,0.2,"s","s","glo","con",1,686.000109
3,"2020-02-03_18h20.49.560",48,"test","bigSsmallH.png","H","S","down_right",0.2,-0.2,"s","s","glo","inc",1,786.000013
3,"2020-02-03_18h20.49.560",49,"test","bigHsmallS.png","S","H","down_left",-0.2,-0.2,"h","h","glo","inc",1,686.000109
3,"2020-02-03_18h20.49.560",50,"test","bigHsmallH.png","H","H","up_right",0.2,0.2,"h","h","glo","con",1,1153.000116
3,"2020-02-03_18h20.49.560",51,"test","bigSsmallS.png","S","S","down_left",-0.2,-0.2,"s","s","glo","con",1,521.000147
3,"2020-02-03_18h20.49.560",52,"test","bigHsmallH.png","H","H","up_left",-0.2,0.2,"h","h","glo","con",1,503.000021
3,"2020-02-03_18h20.49.560",53,"test","bigHsmallH.png","H","H","down_left",-0.2,-0.2,"h","h","glo","con",1,653.000116
3,"2020-02-03_18h20.49.560",54,"test","bigHsmallS.png","S","H","up_left",-0.2,0.2,"h","h","glo","inc",1,470.999956
3,"2020-02-03_18h20.49.560",55,"test","bigHsmallS.png","S","H","down_right",0.2,-0.2,"h","h","glo","inc",1,437.000036
3,"2020-02-03_18h20.49.560",56,"test","bigSsmallS.png","S","S","down_right",0.2,-0.2,"s","h","glo","con",0,437.999964
3,"2020-02-03_18h20.49.560",57,"test","bigSsmallH.png","H","S","down_left",-0.2,-0.2,"s","s","glo","inc",1,701.999903
3,"2020-02-03_18h20.49.560",58,"test","bigSsmallH.png","H","S","up_left",-0.2,0.2,"s","s","glo","inc",1,685.99987
3,"2020-02-03_18h20.49.560",59,"test","bigSsmallS.png","S","S","up_left",-0.2,0.2,"s","s","glo","con",1,1168.99991
3,"2020-02-03_18h20.49.560",60,"test","bigSsmallS.png","S","S","up_right",0.2,0.2,"s","s","glo","con",1,837.000132
3,"2020-02-03_18h20.49.560",61,"test","bigHsmallH.png","H","H","down_right",0.2,-0.2,"h","h","glo","con",1,1119.999886
3,"2020-02-03_18h20.49.560",62,"test","bigHsmallS.png","S","H","up_right",0.2,0.2,"h","s","glo","inc",0,2700.999975
3,"2020-02-03_18h20.49.560",63,"test","bigSsmallH.png","H","S","up_right",0.2,0.2,"s","h","glo","inc",0,1185.99987
3,"2020-02-03_18h20.49.560",64,"test","bigSsmallH.png","H","S","down_right",0.2,-0.2,"s","h","glo","inc",0,703.000069
3,"2020-02-03_18h20.49.560",65,"test","bigHsmallH.png","H","H","down_left",-0.2,-0.2,"h","h","glo","con",1,1154.000044
3,"2020-02-03_18h20.49.560",66,"test","bigSsmallH.png","H","S","up_right",0.2,0.2,"s","h","glo","inc",0,1270.999908
3,"2020-02-03_18h20.49.560",67,"test","bigSsmallS.png","S","S","up_right",0.2,0.2,"s","s","glo","con",1,1085.999966
3,"2020-02-03_18h20.49.560",68,"test","bigSsmallH.png","H","S","up_left",-0.2,0.2,"s","h","glo","inc",0,2118.000031
3,"2020-02-03_18h20.49.560",69,"test","bigHsmallS.png","S","H","down_left",-0.2,-0.2,"h","s","glo","inc",0,1268.999815
3,"2020-02-03_18h20.49.560",70,"test","bigSsmallS.png","S","S","up_left",-0.2,0.2,"s","s","glo","con",1,1365.999937
3,"2020-02-03_18h20.49.560",71,"test","bigSsmallH.png","H","S","down_left",-0.2,-0.2,"s","h","glo","inc",0,1586.999893
3,"2020-02-03_18h20.49.560",72,"test","bigHsmallS.png","S","H","down_right",0.2,-0.2,"h","s","glo","inc",0,1235.999823
3,"2020-02-03_18h20.49.560",73,"test","bigSsmallS.png","S","S","down_left",-0.2,-0.2,"s","s","glo","con",1,2317.99984
3,"2020-02-03_18h20.49.560",74,"test","bigHsmallS.png","S","H","up_left",-0.2,0.2,"h","s","glo","inc",0,1202.99983
3,"2020-02-03_18h20.49.560",75,"test","bigSsmallH.png","H","S","down_right",0.2,-0.2,"s","h","glo","inc",0,903.999805
3,"2020-02-03_18h20.49.560",76,"test","bigHsmallH.png","H","H","up_left",-0.2,0.2,"h","h","glo","con",1,1236.999989
3,"2020-02-03_18h20.49.560",77,"test","bigHsmallS.png","S","H","up_right",0.2,0.2,"h","s","glo","inc",0,1319.999933
3,"2020-02-03_18h20.49.560",78,"test","bigSsmallS.png","S","S","down_right",0.2,-0.2,"s","s","glo","con",1,1786.000013
3,"2020-02-03_18h20.49.560",79,"test","bigHsmallH.png","H","H","down_right",0.2,-0.2,"h","h","glo","con",1,2101.999998
3,"2020-02-03_18h20.49.560",80,"test","bigHsmallH.png","H","H","up_right",0.2,0.2,"h","h","glo","con",1,1269.000053
3,"2020-02-03_18h20.49.560",81,"test","bigHsmallS.png","S","H","up_left",-0.2,0.2,"h","s","glo","inc",0,1119.999886
3,"2020-02-03_18h20.49.560",82,"test","bigSsmallS.png","S","S","up_left",-0.2,0.2,"s","s","glo","con",1,1218.999863
3,"2020-02-03_18h20.49.560",83,"test","bigSsmallS.png","S","S","up_right",0.2,0.2,"s","s","glo","con",1,668.99991
3,"2020-02-03_18h20.49.560",84,"test","bigHsmallH.png","H","H","up_right",0.2,0.2,"h","h","glo","con",1,1151.99995
3,"2020-02-03_18h20.49.560",85,"test","bigSsmallH.png","H","S","up_right",0.2,0.2,"s","h","glo","inc",0,919.000149
3,"2020-02-03_18h20.49.560",86,"test","bigHsmallS.png","S","H","up_right",0.2,0.2,"h","s","glo","inc",0,788.000107
3,"2020-02-03_18h20.49.560",87,"test","bigHsmallS.png","S","H","down_right",0.2,-0.2,"h","s","glo","inc",0,1152.999878
3,"2020-02-03_18h20.49.560",88,"test","bigSsmallH.png","H","S","up_left",-0.2,0.2,"s","h","glo","inc",0,1217.999935
3,"2020-02-03_18h20.49.560",89,"test","bigSsmallS.png","S","S","down_right",0.2,-0.2,"s","s","glo","con",1,1320.000172
3,"2020-02-03_18h20.49.560",90,"test","bigSsmallS.png","S","S","down_left",-0.2,-0.2,"s","s","glo","con",1,1236.999989
3,"2020-02-03_18h20.49.560",91,"test","bigHsmallH.png","H","H","down_left",-0.2,-0.2,"h","h","glo","con",1,1236.999989
3,"2020-02-03_18h20.49.560",92,"test","bigHsmallH.png","H","H","up_left",-0.2,0.2,"h","h","glo","con",1,1802.999973
3,"2020-02-03_18h20.49.560",93,"test","bigSsmallH.png","H","S","down_left",-0.2,-0.2,"s","h","glo","inc",0,1201.999903
3,"2020-02-03_18h20.49.560",94,"test","bigHsmallS.png","S","H","down_left",-0.2,-0.2,"h","s","glo","inc",0,888.000011
3,"2020-02-03_18h20.49.560",95,"test","bigSsmallH.png","H","S","down_right",0.2,-0.2,"s","h","glo","inc",0,921.000004
3,"2020-02-03_18h20.49.560",96,"test","bigHsmallH.png","H","H","down_right",0.2,-0.2,"h","h","glo","con",1,1035.000086
3,"2020-02-03_18h20.49.560",97,"test","bigSsmallH.png","H","S","up_left",-0.2,0.2,"h","h","loc","inc",1,2120.000124
3,"2020-02-03_18h20.49.560",98,"test","bigSsmallH.png","H","S","down_left",-0.2,-0.2,"h","h","loc","inc",1,769.999981
3,"2020-02-03_18h20.49.560",99,"test","bigHsmallH.png","H","H","up_left",-0.2,0.2,"h","h","loc","con",1,1186.000109
3,"2020-02-03_18h20.49.560",100,"test","bigSsmallS.png","S","S","up_right",0.2,0.2,"s","s","loc","con",1,618.000031
3,"2020-02-03_18h20.49.560",101,"test","bigHsmallH.png","H","H","up_right",0.2,0.2,"h","h","loc","con",1,820.999861
3,"2020-02-03_18h20.49.560",102,"test","bigSsmallS.png","S","S","down_right",0.2,-0.2,"s","s","loc","con",1,853.000164
3,"2020-02-03_18h20.49.560",103,"test","bigHsmallH.png","H","H","down_left",-0.2,-0.2,"h","h","loc","con",1,920.000076
3,"2020-02-03_18h20.49.560",104,"test","bigSsmallH.png","H","S","down_right",0.2,-0.2,"h","h","loc","inc",1,1052.999973
3,"2020-02-03_18h20.49.560",105,"test","bigHsmallS.png","S","H","up_left",-0.2,0.2,"s","s","loc","inc",1,1042.999983
3,"2020-02-03_18h20.49.560",106,"test","bigHsmallS.png","S","H","down_right",0.2,-0.2,"s","s","loc","inc",1,1602.999926
3,"2020-02-03_18h20.49.560",107,"test","bigHsmallS.png","S","H","down_left",-0.2,-0.2,"s","s","loc","inc",1,904.000044
3,"2020-02-03_18h20.49.560",108,"test","bigHsmallS.png","S","H","up_right",0.2,0.2,"s","s","loc","inc",1,937.000036
3,"2020-02-03_18h20.49.560",109,"test","bigSsmallS.png","S","S","down_left",-0.2,-0.2,"s","s","loc","con",1,904.000044
3,"2020-02-03_18h20.49.560",110,"test","bigHsmallH.png","H","H","down_right",0.2,-0.2,"h","h","loc","con",1,1036.000013
3,"2020-02-03_18h20.49.560",111,"test","bigSsmallS.png","S","S","up_left",-0.2,0.2,"s","s","loc","con",1,904.000044
3,"2020-02-03_18h20.49.560",112,"test","bigSsmallH.png","H","S","up_right",0.2,0.2,"h","h","loc","inc",1,1153.000116
3,"2020-02-03_18h20.49.560",113,"test","bigSsmallH.png","H","S","up_left",-0.2,0.2,"h","h","loc","inc",1,902.000189
3,"2020-02-03_18h20.49.560",114,"test","bigSsmallS.png","S","S","down_left",-0.2,-0.2,"s","s","loc","con",1,586.999893
3,"2020-02-03_18h20.49.560",115,"test","bigHsmallS.png","S","H","up_left",-0.2,0.2,"s","s","loc","inc",1,869.999886
3,"2020-02-03_18h20.49.560",116,"test","bigSsmallS.png","S","S","up_left",-0.2,0.2,"s","s","loc","con",1,819.000006
3,"2020-02-03_18h20.49.560",117,"test","bigSsmallH.png","H","S","down_left",-0.2,-0.2,"h","h","loc","inc",1,902.999878
3,"2020-02-03_18h20.49.560",118,"test","bigHsmallH.png","H","H","down_left",-0.2,-0.2,"h","h","loc","con",1,1634.99999
3,"2020-02-03_18h20.49.560",119,"test","bigSsmallS.png","S","S","down_right",0.2,-0.2,"s","s","loc","con",1,2373.999834
3,"2020-02-03_18h20.49.560",120,"test","bigSsmallH.png","H","S","up_right",0.2,0.2,"h","h","loc","inc",1,1054.000139
3,"2020-02-03_18h20.49.560",121,"test","bigHsmallH.png","H","H","up_left",-0.2,0.2,"h","h","loc","con",1,1236.999989
3,"2020-02-03_18h20.49.560",122,"test","bigHsmallS.png","S","H","down_right",0.2,-0.2,"s","s","loc","inc",1,820.999861
3,"2020-02-03_18h20.49.560",123,"test","bigHsmallH.png","H","H","down_right",0.2,-0.2,"h","h","loc","con",1,1105.000019
3,"2020-02-03_18h20.49.560",124,"test","bigSsmallS.png","S","S","up_right",0.2,0.2,"s","s","loc","con",1,836.000204
3,"2020-02-03_18h20.49.560",125,"test","bigHsmallS.png","S","H","down_left",-0.2,-0.2,"s","s","loc","inc",1,2251.999855
3,"2020-02-03_18h20.49.560",126,"test","bigSsmallH.png","H","S","down_right",0.2,-0.2,"h","h","loc","inc",1,1386.999846
3,"2020-02-03_18h20.49.560",127,"test","bigHsmallH.png","H","H","up_right",0.2,0.2,"h","h","loc","con",1,1153.000116
3,"2020-02-03_18h20.49.560",128,"test","bigHsmallS.png","S","H","up_right",0.2,0.2,"s","s","loc","inc",1,1670.000076
3,"2020-02-03_18h20.49.560",129,"test","bigSsmallS.png","S","S","up_right",0.2,0.2,"s","s","loc","con",1,904.000044
3,"2020-02-03_18h20.49.560",130,"test","bigSsmallH.png","H","S","down_right",0.2,-0.2,"h","h","loc","inc",1,936.999798
3,"2020-02-03_18h20.49.560",131,"test","bigHsmallS.png","S","H","down_right",0.2,-0.2,"s","s","loc","inc",1,1086.999893
3,"2020-02-03_18h20.49.560",132,"test","bigHsmallH.png","H","H","down_left",-0.2,-0.2,"h","","loc","con",0,NA
3,"2020-02-03_18h20.49.560",133,"test","bigHsmallS.png","S","H","up_right",0.2,0.2,"s","s","loc","inc",1,1035.000086
3,"2020-02-03_18h20.49.560",134,"test","bigSsmallS.png","S","S","down_left",-0.2,-0.2,"s","s","loc","con",1,1003.999949
3,"2020-02-03_18h20.49.560",135,"test","bigHsmallS.png","S","H","up_left",-0.2,0.2,"s","s","loc","inc",1,784.999847
3,"2020-02-03_18h20.49.560",136,"test","bigSsmallS.png","S","S","down_right",0.2,-0.2,"s","s","loc","con",1,672.00017
3,"2020-02-03_18h20.49.560",137,"test","bigHsmallH.png","H","H","up_right",0.2,0.2,"h","h","loc","con",1,1037.000179
3,"2020-02-03_18h20.49.560",138,"test","bigHsmallH.png","H","H","down_right",0.2,-0.2,"h","h","loc","con",1,1134.99999
3,"2020-02-03_18h20.49.560",139,"test","bigHsmallS.png","S","H","down_left",-0.2,-0.2,"s","s","loc","inc",1,569.999933
3,"2020-02-03_18h20.49.560",140,"test","bigSsmallS.png","S","S","up_left",-0.2,0.2,"s","s","loc","con",1,1003.000021
3,"2020-02-03_18h20.49.560",141,"test","bigSsmallH.png","H","S","up_right",0.2,0.2,"h","h","loc","inc",1,1174.999952
3,"2020-02-03_18h20.49.560",142,"test","bigSsmallH.png","H","S","down_left",-0.2,-0.2,"h","h","loc","inc",1,2186.000109
3,"2020-02-03_18h20.49.560",143,"test","bigSsmallH.png","H","S","up_left",-0.2,0.2,"h","h","loc","inc",1,937.000036
3,"2020-02-03_18h20.49.560",144,"test","bigHsmallH.png","H","H","up_left",-0.2,0.2,"h","h","loc","con",1,986.000061
3,"2020-02-03_18h20.49.560",145,"test","bigHsmallH.png","H","H","up_left",-0.2,0.2,"h","h","loc","con",1,718.000174
3,"2020-02-03_18h20.49.560",146,"test","bigSsmallS.png","S","S","up_right",0.2,0.2,"s","s","loc","con",1,871.000051
3,"2020-02-03_18h20.49.560",147,"test","bigSsmallS.png","S","S","down_right",0.2,-0.2,"s","s","loc","con",1,633.999825
3,"2020-02-03_18h20.49.560",148,"test","bigSsmallH.png","H","S","up_left",-0.2,0.2,"h","h","loc","inc",1,1004.000187
3,"2020-02-03_18h20.49.560",149,"test","bigHsmallH.png","H","H","down_left",-0.2,-0.2,"h","h","loc","con",1,586.999893
3,"2020-02-03_18h20.49.560",150,"test","bigHsmallS.png","S","H","up_right",0.2,0.2,"s","s","loc","inc",1,1019.999981
3,"2020-02-03_18h20.49.560",151,"test","bigSsmallH.png","H","S","down_left",-0.2,-0.2,"h","h","loc","inc",1,1286.000013
3,"2020-02-03_18h20.49.560",152,"test","bigHsmallS.png","S","H","up_left",-0.2,0.2,"s","h","loc","inc",0,2733.999968
3,"2020-02-03_18h20.49.560",153,"test","bigSsmallH.png","H","S","up_right",0.2,0.2,"h","h","loc","inc",1,868.999958
3,"2020-02-03_18h20.49.560",154,"test","bigHsmallS.png","S","H","down_right",0.2,-0.2,"s","s","loc","inc",1,1202.99983
3,"2020-02-03_18h20.49.560",155,"test","bigSsmallS.png","S","S","down_left",-0.2,-0.2,"s","s","loc","con",1,1631.999969
3,"2020-02-03_18h20.49.560",156,"test","bigHsmallS.png","S","H","down_left",-0.2,-0.2,"s","s","loc","inc",1,1720.999956
3,"2020-02-03_18h20.49.560",157,"test","bigHsmallH.png","H","H","up_right",0.2,0.2,"h","h","loc","con",1,936.000109
3,"2020-02-03_18h20.49.560",158,"test","bigSsmallH.png","H","S","down_right",0.2,-0.2,"h","h","loc","inc",1,1202.000141
3,"2020-02-03_18h20.49.560",159,"test","bigHsmallH.png","H","H","down_right",0.2,-0.2,"h","h","loc","con",1,1069.999933
3,"2020-02-03_18h20.49.560",160,"test","bigSsmallS.png","S","S","up_left",-0.2,0.2,"s","s","loc","con",1,786.999941
3,"2020-02-03_18h20.49.560",161,"test","bigSsmallS.png","S","S","down_right",0.2,-0.2,"s","s","loc","con",1,671.000004
3,"2020-02-03_18h20.49.560",162,"test","bigSsmallH.png","H","S","down_left",-0.2,-0.2,"h","h","loc","inc",1,937.000036
3,"2020-02-03_18h20.49.560",163,"test","bigHsmallS.png","S","H","down_right",0.2,-0.2,"s","s","loc","inc",1,885.999918
3,"2020-02-03_18h20.49.560",164,"test","bigHsmallH.png","H","H","down_left",-0.2,-0.2,"h","h","loc","con",1,755.000114
3,"2020-02-03_18h20.49.560",165,"test","bigSsmallS.png","S","S","down_left",-0.2,-0.2,"s","s","loc","con",1,786.999941
3,"2020-02-03_18h20.49.560",166,"test","bigHsmallH.png","H","H","up_right",0.2,0.2,"h","h","loc","con",1,986.000061
3,"2020-02-03_18h20.49.560",167,"test","bigSsmallH.png","H","S","down_right",0.2,-0.2,"h","h","loc","inc",1,971.000195
3,"2020-02-03_18h20.49.560",168,"test","bigHsmallS.png","S","H","up_right",0.2,0.2,"s","s","loc","inc",1,703.000069
3,"2020-02-03_18h20.49.560",169,"test","bigHsmallS.png","S","H","down_left",-0.2,-0.2,"s","s","loc","inc",1,3833.999872
3,"2020-02-03_18h20.49.560",170,"test","bigSsmallH.png","H","S","up_right",0.2,0.2,"h","h","loc","inc",1,776.000023
3,"2020-02-03_18h20.49.560",171,"test","bigSsmallH.png","H","S","up_left",-0.2,0.2,"h","h","loc","inc",1,1094.000101
3,"2020-02-03_18h20.49.560",172,"test","bigHsmallH.png","H","H","down_right",0.2,-0.2,"h","h","loc","con",1,1570.000172
3,"2020-02-03_18h20.49.560",173,"test","bigSsmallS.png","S","S","up_left",-0.2,0.2,"s","h","loc","con",0,3134.000063
3,"2020-02-03_18h20.49.560",174,"test","bigSsmallS.png","S","S","up_right",0.2,0.2,"s","s","loc","con",1,1118.999958
3,"2020-02-03_18h20.49.560",175,"test","bigHsmallH.png","H","H","up_left",-0.2,0.2,"h","h","loc","con",1,753.000021
3,"2020-02-03_18h20.49.560",176,"test","bigHsmallS.png","S","H","up_left",-0.2,0.2,"s","s","loc","inc",1,637.000084
3,"2020-02-03_18h20.49.560",177,"test","bigSsmallS.png","S","S","up_right",0.2,0.2,"s","s","loc","con",1,670.999765
3,"2020-02-03_18h20.49.560",178,"test","bigHsmallH.png","H","H","down_left",-0.2,-0.2,"h","h","loc","con",1,786.999941
3,"2020-02-03_18h20.49.560",179,"test","bigHsmallH.png","H","H","down_right",0.2,-0.2,"h","h","loc","con",1,707.999945
3,"2020-02-03_18h20.49.560",180,"test","bigSsmallS.png","S","S","down_right",0.2,-0.2,"s","s","loc","con",1,753.999949
3,"2020-02-03_18h20.49.560",181,"test","bigHsmallS.png","S","H","down_left",-0.2,-0.2,"s","s","loc","inc",1,1175.99988
3,"2020-02-03_18h20.49.560",182,"test","bigSsmallH.png","H","S","down_left",-0.2,-0.2,"h","h","loc","inc",1,1003.000021
3,"2020-02-03_18h20.49.560",183,"test","bigSsmallS.png","S","S","down_left",-0.2,-0.2,"s","s","loc","con",1,936.999798
3,"2020-02-03_18h20.49.560",184,"test","bigSsmallS.png","S","S","up_left",-0.2,0.2,"s","s","loc","con",1,1019.999981
3,"2020-02-03_18h20.49.560",185,"test","bigSsmallH.png","H","S","down_right",0.2,-0.2,"h","h","loc","inc",1,888.999939
3,"2020-02-03_18h20.49.560",186,"test","bigHsmallS.png","S","H","up_right",0.2,0.2,"s","s","loc","inc",1,1585.999966
3,"2020-02-03_18h20.49.560",187,"test","bigHsmallS.png","S","H","down_right",0.2,-0.2,"s","s","loc","inc",1,703.999996
3,"2020-02-03_18h20.49.560",188,"test","bigHsmallH.png","H","H","up_right",0.2,0.2,"h","h","loc","con",1,835.999966
3,"2020-02-03_18h20.49.560",189,"test","bigHsmallS.png","S","H","up_left",-0.2,0.2,"s","s","loc","inc",1,769.999981
3,"2020-02-03_18h20.49.560",190,"test","bigHsmallH.png","H","H","up_left",-0.2,0.2,"h","h","loc","con",1,953.999996
3,"2020-02-03_18h20.49.560",191,"test","bigSsmallH.png","H","S","up_left",-0.2,0.2,"h","h","loc","inc",1,937.999964
3,"2020-02-03_18h20.49.560",192,"test","bigSsmallH.png","H","S","up_right",0.2,0.2,"h","h","loc","inc",1,953.999996
4,"2020-02-03_18h47.19.890",NA,"practice","bigSsmallH.png","H","S","up_right",0.2,0.2,"h","s","loc","inc",0,5822.000027
4,"2020-02-03_18h47.19.890",NA,"practice","bigHsmallS.png","S","H","up_left",-0.2,0.2,"s","h","loc","inc",0,2407.999992
4,"2020-02-03_18h47.19.890",NA,"practice","bigHsmallS.png","S","H","down_right",0.2,-0.2,"s","h","loc","inc",0,1605.999947
4,"2020-02-03_18h47.19.890",NA,"practice","bigSsmallH.png","H","S","down_right",0.2,-0.2,"h","s","loc","inc",0,1935.000181
4,"2020-02-03_18h47.19.890",NA,"practice","bigSsmallH.png","H","S","up_left",-0.2,0.2,"h","s","loc","inc",0,2362.999916
4,"2020-02-03_18h47.19.890",NA,"practice","bigSsmallH.png","H","S","down_left",-0.2,-0.2,"h","s","loc","inc",0,1592.000008
4,"2020-02-03_18h47.19.890",NA,"practice","bigHsmallH.png","H","H","up_right",0.2,0.2,"h","h","loc","con",1,2097.000122
4,"2020-02-03_18h47.19.890",NA,"practice","bigHsmallS.png","S","H","down_left",-0.2,-0.2,"s","h","loc","inc",0,1625
4,"2020-02-03_18h47.19.890",NA,"practice","bigSsmallH.png","H","S","down_right",0.2,-0.2,"s","s","glo","inc",1,1694.000006
4,"2020-02-03_18h47.19.890",NA,"practice","bigSsmallH.png","H","S","down_left",-0.2,-0.2,"s","s","glo","inc",1,1241.999865
4,"2020-02-03_18h47.19.890",NA,"practice","bigHsmallH.png","H","H","up_right",0.2,0.2,"h","h","glo","con",1,1080.000162
4,"2020-02-03_18h47.19.890",NA,"practice","bigSsmallH.png","H","S","up_right",0.2,0.2,"s","s","glo","inc",1,1070.999861
4,"2020-02-03_18h47.19.890",NA,"practice","bigHsmallS.png","S","H","up_left",-0.2,0.2,"h","h","glo","inc",1,1092.000008
4,"2020-02-03_18h47.19.890",NA,"practice","bigHsmallS.png","S","H","down_right",0.2,-0.2,"h","h","glo","inc",1,1121.000051
4,"2020-02-03_18h47.19.890",NA,"practice","bigSsmallH.png","H","S","up_left",-0.2,0.2,"s","s","glo","inc",1,1174.000025
4,"2020-02-03_18h47.19.890",NA,"practice","bigHsmallS.png","S","H","down_left",-0.2,-0.2,"h","h","glo","inc",1,1158.99992
4,"2020-02-03_18h47.19.890",1,"test","bigHsmallH.png","H","H","down_left",-0.2,-0.2,"h","h","loc","con",1,1608.00004
4,"2020-02-03_18h47.19.890",2,"test","bigSsmallS.png","S","S","up_right",0.2,0.2,"s","s","loc","con",1,1256.999969
4,"2020-02-03_18h47.19.890",3,"test","bigSsmallH.png","H","S","down_left",-0.2,-0.2,"h","s","loc","inc",0,1256.000042
4,"2020-02-03_18h47.19.890",4,"test","bigHsmallH.png","H","H","down_right",0.2,-0.2,"h","h","loc","con",1,1088.999987
4,"2020-02-03_18h47.19.890",5,"test","bigHsmallS.png","S","H","up_left",-0.2,0.2,"s","h","loc","inc",0,1125.999928
4,"2020-02-03_18h47.19.890",6,"test","bigSsmallS.png","S","S","down_left",-0.2,-0.2,"s","s","loc","con",1,1238.999844
4,"2020-02-03_18h47.19.890",7,"test","bigHsmallS.png","S","H","down_right",0.2,-0.2,"s","h","loc","inc",0,1088.000059
4,"2020-02-03_18h47.19.890",8,"test","bigHsmallH.png","H","H","up_left",-0.2,0.2,"h","h","loc","con",1,1108.00004
4,"2020-02-03_18h47.19.890",9,"test","bigSsmallH.png","H","S","up_right",0.2,0.2,"h","s","loc","inc",0,1162.999868
4,"2020-02-03_18h47.19.890",10,"test","bigSsmallH.png","H","S","down_right",0.2,-0.2,"h","s","loc","inc",0,1088.999987
4,"2020-02-03_18h47.19.890",11,"test","bigHsmallH.png","H","H","up_right",0.2,0.2,"h","h","loc","con",1,1109.999895
4,"2020-02-03_18h47.19.890",12,"test","bigHsmallS.png","S","H","down_left",-0.2,-0.2,"s","h","loc","inc",0,1092.999935
4,"2020-02-03_18h47.19.890",13,"test","bigSsmallS.png","S","S","up_left",-0.2,0.2,"s","s","loc","con",1,1075.999975
4,"2020-02-03_18h47.19.890",14,"test","bigSsmallH.png","H","S","up_left",-0.2,0.2,"h","s","loc","inc",0,1073.999882
4,"2020-02-03_18h47.19.890",15,"test","bigSsmallS.png","S","S","down_right",0.2,-0.2,"s","s","loc","con",1,1023.999929
4,"2020-02-03_18h47.19.890",16,"test","bigHsmallS.png","S","H","up_right",0.2,0.2,"s","h","loc","inc",0,1093.999863
4,"2020-02-03_18h47.19.890",17,"test","bigHsmallS.png","S","H","up_right",0.2,0.2,"s","h","loc","inc",0,1003.999949
4,"2020-02-03_18h47.19.890",18,"test","bigHsmallH.png","H","H","down_left",-0.2,-0.2,"h","h","loc","con",1,940.999985
4,"2020-02-03_18h47.19.890",19,"test","bigSsmallS.png","S","S","down_left",-0.2,-0.2,"s","s","loc","con",1,1004.999876
4,"2020-02-03_18h47.19.890",20,"test","bigHsmallS.png","S","H","down_left",-0.2,-0.2,"s","h","loc","inc",0,1078.000069
4,"2020-02-03_18h47.19.890",21,"test","bigSsmallH.png","H","S","up_left",-0.2,0.2,"h","s","loc","inc",0,925.99988
4,"2020-02-03_18h47.19.890",22,"test","bigSsmallH.png","H","S","down_right",0.2,-0.2,"h","s","loc","inc",0,2782.999992
4,"2020-02-03_18h47.19.890",23,"test","bigHsmallH.png","H","H","up_right",0.2,0.2,"h","h","loc","con",1,1304.000139
4,"2020-02-03_18h47.19.890",24,"test","bigSsmallH.png","H","S","up_right",0.2,0.2,"h","s","loc","inc",0,1105.000019
4,"2020-02-03_18h47.19.890",25,"test","bigHsmallS.png","S","H","down_right",0.2,-0.2,"s","h","loc","inc",0,1225.000143
4,"2020-02-03_18h47.19.890",26,"test","bigSsmallS.png","S","S","down_right",0.2,-0.2,"s","s","loc","con",1,1139.000177
4,"2020-02-03_18h47.19.890",27,"test","bigHsmallS.png","S","H","up_left",-0.2,0.2,"s","h","loc","inc",0,1092.000008
4,"2020-02-03_18h47.19.890",28,"test","bigSsmallH.png","H","S","down_left",-0.2,-0.2,"h","s","loc","inc",0,1088.999987
4,"2020-02-03_18h47.19.890",29,"test","bigSsmallS.png","S","S","up_left",-0.2,0.2,"s","s","loc","con",1,1092.000008
4,"2020-02-03_18h47.19.890",30,"test","bigSsmallS.png","S","S","up_right",0.2,0.2,"s","s","loc","con",1,1055.999994
4,"2020-02-03_18h47.19.890",31,"test","bigHsmallH.png","H","H","up_left",-0.2,0.2,"h","h","loc","con",1,1087.000132
4,"2020-02-03_18h47.19.890",32,"test","bigHsmallH.png","H","H","down_right",0.2,-0.2,"h","h","loc","con",1,1052.000046
4,"2020-02-03_18h47.19.890",33,"test","bigHsmallS.png","S","H","up_right",0.2,0.2,"s","h","loc","inc",0,1236.000061
4,"2020-02-03_18h47.19.890",34,"test","bigSsmallS.png","S","S","down_left",-0.2,-0.2,"s","s","loc","con",1,1098.999977
4,"2020-02-03_18h47.19.890",35,"test","bigHsmallS.png","S","H","down_right",0.2,-0.2,"s","h","loc","inc",0,1076.000214
4,"2020-02-03_18h47.19.890",36,"test","bigHsmallH.png","H","H","down_right",0.2,-0.2,"h","h","loc","con",1,1869.999886
4,"2020-02-03_18h47.19.890",37,"test","bigSsmallH.png","H","S","down_left",-0.2,-0.2,"h","s","loc","inc",0,1066.999912
4,"2020-02-03_18h47.19.890",38,"test","bigSsmallH.png","H","S","down_right",0.2,-0.2,"h","s","loc","inc",0,1174.999952
4,"2020-02-03_18h47.19.890",39,"test","bigSsmallS.png","S","S","down_right",0.2,-0.2,"s","s","loc","con",1,1141.000032
4,"2020-02-03_18h47.19.890",40,"test","bigHsmallH.png","H","H","up_right",0.2,0.2,"h","h","loc","con",1,1072.999954
4,"2020-02-03_18h47.19.890",41,"test","bigSsmallS.png","S","S","up_right",0.2,0.2,"s","s","loc","con",1,1056.999922
4,"2020-02-03_18h47.19.890",42,"test","bigSsmallH.png","H","S","up_right",0.2,0.2,"h","s","loc","inc",0,1071.000099
4,"2020-02-03_18h47.19.890",43,"test","bigSsmallH.png","H","S","up_left",-0.2,0.2,"h","s","loc","inc",0,1006.000042
4,"2020-02-03_18h47.19.890",44,"test","bigSsmallS.png","S","S","up_left",-0.2,0.2,"s","s","loc","con",1,1069.999933
4,"2020-02-03_18h47.19.890",45,"test","bigHsmallH.png","H","H","up_left",-0.2,0.2,"h","h","loc","con",1,1038.000107
4,"2020-02-03_18h47.19.890",46,"test","bigHsmallH.png","H","H","down_left",-0.2,-0.2,"h","h","loc","con",1,1023.000002
4,"2020-02-03_18h47.19.890",47,"test","bigHsmallS.png","S","H","up_left",-0.2,0.2,"s","h","loc","inc",0,1095.999956
4,"2020-02-03_18h47.19.890",48,"test","bigHsmallS.png","S","H","down_left",-0.2,-0.2,"s","h","loc","inc",0,1105.000019
4,"2020-02-03_18h47.19.890",49,"test","bigSsmallH.png","H","S","down_left",-0.2,-0.2,"h","s","loc","inc",0,1156.000137
4,"2020-02-03_18h47.19.890",50,"test","bigHsmallS.png","S","H","down_left",-0.2,-0.2,"s","h","loc","inc",0,1240.999937
4,"2020-02-03_18h47.19.890",51,"test","bigHsmallH.png","H","H","up_left",-0.2,0.2,"h","h","loc","con",1,1108.999968
4,"2020-02-03_18h47.19.890",52,"test","bigSsmallS.png","S","S","down_left",-0.2,-0.2,"s","s","loc","con",1,1039.999962
4,"2020-02-03_18h47.19.890",53,"test","bigSsmallS.png","S","S","up_right",0.2,0.2,"s","s","loc","con",1,2490.00001
4,"2020-02-03_18h47.19.890",54,"test","bigHsmallS.png","S","H","up_left",-0.2,0.2,"s","h","loc","inc",0,3721.999884
4,"2020-02-03_18h47.19.890",55,"test","bigSsmallH.png","H","S","down_right",0.2,-0.2,"h","s","loc","inc",0,1136.000156
4,"2020-02-03_18h47.19.890",56,"test","bigHsmallS.png","S","H","up_right",0.2,0.2,"s","h","loc","inc",0,1242.000103
4,"2020-02-03_18h47.19.890",57,"test","bigHsmallH.png","H","H","down_right",0.2,-0.2,"h","h","loc","con",1,1171.999931
4,"2020-02-03_18h47.19.890",58,"test","bigSsmallS.png","S","S","down_right",0.2,-0.2,"s","s","loc","con",1,1605.999947
4,"2020-02-03_18h47.19.890",59,"test","bigSsmallH.png","H","S","up_left",-0.2,0.2,"h","s","loc","inc",0,2042.999983
4,"2020-02-03_18h47.19.890",60,"test","bigSsmallS.png","S","S","up_left",-0.2,0.2,"s","s","loc","con",1,1555.000067
4,"2020-02-03_18h47.19.890",61,"test","bigHsmallS.png","S","H","down_right",0.2,-0.2,"s","h","loc","inc",0,1493.000031
4,"2020-02-03_18h47.19.890",62,"test","bigHsmallH.png","H","H","down_left",-0.2,-0.2,"h","h","loc","con",1,1234.999895
4,"2020-02-03_18h47.19.890",63,"test","bigHsmallH.png","H","H","up_right",0.2,0.2,"h","h","loc","con",1,1371.000051
4,"2020-02-03_18h47.19.890",64,"test","bigSsmallH.png","H","S","up_right",0.2,0.2,"h","s","loc","inc",0,1169.000149
4,"2020-02-03_18h47.19.890",65,"test","bigHsmallS.png","S","H","down_right",0.2,-0.2,"s","h","loc","inc",0,1080.999851
4,"2020-02-03_18h47.19.890",66,"test","bigSsmallS.png","S","S","down_right",0.2,-0.2,"s","s","loc","con",1,1039.999962
4,"2020-02-03_18h47.19.890",67,"test","bigSsmallH.png","H","S","down_right",0.2,-0.2,"h","s","loc","inc",0,1139.999866
4,"2020-02-03_18h47.19.890",68,"test","bigHsmallS.png","S","H","up_left",-0.2,0.2,"s","h","loc","inc",0,1213.999987
4,"2020-02-03_18h47.19.890",69,"test","bigHsmallH.png","H","H","down_right",0.2,-0.2,"h","h","loc","con",1,1060.000181
4,"2020-02-03_18h47.19.890",70,"test","bigHsmallH.png","H","H","up_left",-0.2,0.2,"h","h","loc","con",1,1265.000105
4,"2020-02-03_18h47.19.890",71,"test","bigHsmallH.png","H","H","up_right",0.2,0.2,"h","h","loc","con",1,1072.000027
4,"2020-02-03_18h47.19.890",72,"test","bigHsmallH.png","H","H","down_left",-0.2,-0.2,"h","h","loc","con",1,1081.00009
4,"2020-02-03_18h47.19.890",73,"test","bigSsmallH.png","H","S","down_left",-0.2,-0.2,"h","s","loc","inc",0,1112.999916
4,"2020-02-03_18h47.19.890",74,"test","bigSsmallS.png","S","S","down_left",-0.2,-0.2,"s","s","loc","con",1,1043.99991
4,"2020-02-03_18h47.19.890",75,"test","bigSsmallH.png","H","S","up_right",0.2,0.2,"h","s","loc","inc",0,1067.99984
4,"2020-02-03_18h47.19.890",76,"test","bigSsmallS.png","S","S","up_left",-0.2,0.2,"s","s","loc","con",1,1079.999924
4,"2020-02-03_18h47.19.890",77,"test","bigHsmallS.png","S","H","down_left",-0.2,-0.2,"s","h","loc","inc",0,1025.000095
4,"2020-02-03_18h47.19.890",78,"test","bigSsmallH.png","H","S","up_left",-0.2,0.2,"h","s","loc","inc",0,1107.000113
4,"2020-02-03_18h47.19.890",79,"test","bigHsmallS.png","S","H","up_right",0.2,0.2,"s","h","loc","inc",0,1386.999846
4,"2020-02-03_18h47.19.890",80,"test","bigSsmallS.png","S","S","up_right",0.2,0.2,"s","s","loc","con",1,1139.999866
4,"2020-02-03_18h47.19.890",81,"test","bigSsmallH.png","H","S","down_left",-0.2,-0.2,"h","s","loc","inc",0,1237.999916
4,"2020-02-03_18h47.19.890",82,"test","bigHsmallH.png","H","H","down_left",-0.2,-0.2,"h","h","loc","con",1,1152.000189
4,"2020-02-03_18h47.19.890",83,"test","bigSsmallH.png","H","S","down_right",0.2,-0.2,"h","s","loc","inc",0,1121.999979
4,"2020-02-03_18h47.19.890",84,"test","bigHsmallS.png","S","H","up_left",-0.2,0.2,"s","h","loc","inc",0,1108.00004
4,"2020-02-03_18h47.19.890",85,"test","bigSsmallS.png","S","S","down_left",-0.2,-0.2,"s","s","loc","con",1,1040.999889
4,"2020-02-03_18h47.19.890",86,"test","bigSsmallH.png","H","S","up_right",0.2,0.2,"h","s","loc","inc",0,1324.00012
4,"2020-02-03_18h47.19.890",87,"test","bigHsmallH.png","H","H","down_right",0.2,-0.2,"h","h","loc","con",1,1072.000027
4,"2020-02-03_18h47.19.890",88,"test","bigSsmallH.png","H","S","up_left",-0.2,0.2,"h","s","loc","inc",0,1108.999968
4,"2020-02-03_18h47.19.890",89,"test","bigHsmallS.png","S","H","down_right",0.2,-0.2,"s","h","loc","inc",0,1040.999889
4,"2020-02-03_18h47.19.890",90,"test","bigSsmallS.png","S","S","up_right",0.2,0.2,"s","s","loc","con",1,1675.99988
4,"2020-02-03_18h47.19.890",91,"test","bigHsmallS.png","S","H","down_left",-0.2,-0.2,"s","h","loc","inc",0,1407.000065
4,"2020-02-03_18h47.19.890",92,"test","bigSsmallS.png","S","S","up_left",-0.2,0.2,"s","s","loc","con",1,1542.000055
4,"2020-02-03_18h47.19.890",93,"test","bigHsmallH.png","H","H","up_left",-0.2,0.2,"h","h","loc","con",1,1440.000057
4,"2020-02-03_18h47.19.890",94,"test","bigSsmallS.png","S","S","down_right",0.2,-0.2,"s","s","loc","con",1,1204.999924
4,"2020-02-03_18h47.19.890",95,"test","bigHsmallH.png","H","H","up_right",0.2,0.2,"h","h","loc","con",1,1174.999952
4,"2020-02-03_18h47.19.890",96,"test","bigHsmallS.png","S","H","up_right",0.2,0.2,"s","h","loc","inc",0,1222.000122
4,"2020-02-03_18h47.19.890",97,"test","bigSsmallS.png","S","S","up_left",-0.2,0.2,"s","s","glo","con",1,1004.999876
4,"2020-02-03_18h47.19.890",98,"test","bigSsmallH.png","H","S","up_right",0.2,0.2,"s","s","glo","inc",1,1035.000086
4,"2020-02-03_18h47.19.890",99,"test","bigSsmallH.png","H","S","up_left",-0.2,0.2,"s","s","glo","inc",1,954.999924
4,"2020-02-03_18h47.19.890",100,"test","bigSsmallS.png","S","S","down_left",-0.2,-0.2,"s","s","glo","con",1,1085.999966
4,"2020-02-03_18h47.19.890",101,"test","bigHsmallS.png","S","H","down_left",-0.2,-0.2,"h","h","glo","inc",1,1089.999914
4,"2020-02-03_18h47.19.890",102,"test","bigHsmallS.png","S","H","down_right",0.2,-0.2,"h","h","glo","inc",1,1225.000143
4,"2020-02-03_18h47.19.890",103,"test","bigHsmallS.png","S","H","up_right",0.2,0.2,"h","h","glo","inc",1,1021.999836
4,"2020-02-03_18h47.19.890",104,"test","bigHsmallH.png","H","H","up_right",0.2,0.2,"h","h","glo","con",1,1014.999866
4,"2020-02-03_18h47.19.890",105,"test","bigHsmallH.png","H","H","down_right",0.2,-0.2,"h","h","glo","con",1,934.000015
4,"2020-02-03_18h47.19.890",106,"test","bigHsmallH.png","H","H","down_left",-0.2,-0.2,"h","h","glo","con",1,931.999922
4,"2020-02-03_18h47.19.890",107,"test","bigHsmallH.png","H","H","up_left",-0.2,0.2,"h","h","glo","con",1,1064.00013
4,"2020-02-03_18h47.19.890",108,"test","bigHsmallS.png","S","H","up_left",-0.2,0.2,"h","h","glo","inc",1,897.000074
4,"2020-02-03_18h47.19.890",109,"test","bigSsmallS.png","S","S","up_right",0.2,0.2,"s","s","glo","con",1,1075.999975
4,"2020-02-03_18h47.19.890",110,"test","bigSsmallS.png","S","S","down_right",0.2,-0.2,"s","s","glo","con",1,1038.000107
4,"2020-02-03_18h47.19.890",111,"test","bigSsmallH.png","H","S","down_right",0.2,-0.2,"s","s","glo","inc",1,1059.999943
4,"2020-02-03_18h47.19.890",112,"test","bigSsmallH.png","H","S","down_left",-0.2,-0.2,"s","s","glo","inc",1,1059.000015
4,"2020-02-03_18h47.19.890",113,"test","bigHsmallS.png","S","H","down_left",-0.2,-0.2,"h","h","glo","inc",1,1111.999989
4,"2020-02-03_18h47.19.890",114,"test","bigSsmallH.png","H","S","down_left",-0.2,-0.2,"s","s","glo","inc",1,973.999977
4,"2020-02-03_18h47.19.890",115,"test","bigSsmallS.png","S","S","up_right",0.2,0.2,"s","s","glo","con",1,960.999966
4,"2020-02-03_18h47.19.890",116,"test","bigHsmallH.png","H","H","down_left",-0.2,-0.2,"h","h","glo","con",1,996.000051
4,"2020-02-03_18h47.19.890",117,"test","bigHsmallS.png","S","H","up_right",0.2,0.2,"h","h","glo","inc",1,1188.999891
4,"2020-02-03_18h47.19.890",118,"test","bigSsmallS.png","S","S","up_left",-0.2,0.2,"s","s","glo","con",1,1026.99995
4,"2020-02-03_18h47.19.890",119,"test","bigSsmallH.png","H","S","up_left",-0.2,0.2,"s","s","glo","inc",1,1037.999868
4,"2020-02-03_18h47.19.890",120,"test","bigHsmallH.png","H","H","up_right",0.2,0.2,"h","h","glo","con",1,1171.000004
4,"2020-02-03_18h47.19.890",121,"test","bigHsmallS.png","S","H","down_right",0.2,-0.2,"h","h","glo","inc",1,975.999832
4,"2020-02-03_18h47.19.890",122,"test","bigHsmallS.png","S","H","up_left",-0.2,0.2,"h","h","glo","inc",1,889.000177
4,"2020-02-03_18h47.19.890",123,"test","bigHsmallH.png","H","H","up_left",-0.2,0.2,"h","h","glo","con",1,1006.999969
4,"2020-02-03_18h47.19.890",124,"test","bigSsmallH.png","H","S","down_right",0.2,-0.2,"s","s","glo","inc",1,1056.999922
4,"2020-02-03_18h47.19.890",125,"test","bigHsmallH.png","H","H","down_right",0.2,-0.2,"h","h","glo","con",1,1104.000092
4,"2020-02-03_18h47.19.890",126,"test","bigSsmallH.png","H","S","up_right",0.2,0.2,"s","s","glo","inc",1,1072.999954
4,"2020-02-03_18h47.19.890",127,"test","bigSsmallS.png","S","S","down_left",-0.2,-0.2,"s","s","glo","con",1,990.00001
4,"2020-02-03_18h47.19.890",128,"test","bigSsmallS.png","S","S","down_right",0.2,-0.2,"s","s","glo","con",1,1207.000017
4,"2020-02-03_18h47.19.890",129,"test","bigSsmallS.png","S","S","down_left",-0.2,-0.2,"s","s","glo","con",1,1003.999949
4,"2020-02-03_18h47.19.890",130,"test","bigHsmallS.png","S","H","down_left",-0.2,-0.2,"h","h","glo","inc",1,1171.999931
4,"2020-02-03_18h47.19.890",131,"test","bigHsmallH.png","H","H","down_left",-0.2,-0.2,"h","h","glo","con",1,1008.000135
4,"2020-02-03_18h47.19.890",132,"test","bigHsmallH.png","H","H","up_left",-0.2,0.2,"h","h","glo","con",1,1141.99996
4,"2020-02-03_18h47.19.890",133,"test","bigSsmallH.png","H","S","up_left",-0.2,0.2,"s","s","glo","inc",1,1171.999931
4,"2020-02-03_18h47.19.890",134,"test","bigHsmallS.png","S","H","up_right",0.2,0.2,"h","h","glo","inc",1,1055.000067
4,"2020-02-03_18h47.19.890",135,"test","bigSsmallH.png","H","S","up_right",0.2,0.2,"s","s","glo","inc",1,1137.000084
4,"2020-02-03_18h47.19.890",136,"test","bigSsmallS.png","S","S","up_right",0.2,0.2,"s","s","glo","con",1,1456.999779
4,"2020-02-03_18h47.19.890",137,"test","bigSsmallS.png","S","S","up_left",-0.2,0.2,"s","s","glo","con",1,1023.000002
4,"2020-02-03_18h47.19.890",138,"test","bigSsmallS.png","S","S","down_right",0.2,-0.2,"s","s","glo","con",1,1141.000032
4,"2020-02-03_18h47.19.890",139,"test","bigSsmallH.png","H","S","down_right",0.2,-0.2,"s","s","glo","inc",1,989.999771
4,"2020-02-03_18h47.19.890",140,"test","bigSsmallH.png","H","S","down_left",-0.2,-0.2,"s","s","glo","inc",1,2388.999939
4,"2020-02-03_18h47.19.890",141,"test","bigHsmallH.png","H","H","up_right",0.2,0.2,"h","h","glo","con",1,1023.000002
4,"2020-02-03_18h47.19.890",142,"test","bigHsmallH.png","H","H","down_right",0.2,-0.2,"h","h","glo","con",1,1023.999929
4,"2020-02-03_18h47.19.890",143,"test","bigHsmallS.png","S","H","up_left",-0.2,0.2,"h","h","glo","inc",1,1407.999992
4,"2020-02-03_18h47.19.890",144,"test","bigHsmallS.png","S","H","down_right",0.2,-0.2,"h","h","glo","inc",1,1861.000061
4,"2020-02-03_18h47.19.890",145,"test","bigHsmallS.png","S","H","down_left",-0.2,-0.2,"h","h","glo","inc",1,1108.999968
4,"2020-02-03_18h47.19.890",146,"test","bigHsmallS.png","S","H","down_right",0.2,-0.2,"h","h","glo","inc",1,922.00017
4,"2020-02-03_18h47.19.890",147,"test","bigSsmallS.png","S","S","down_left",-0.2,-0.2,"s","s","glo","con",1,977.999926
4,"2020-02-03_18h47.19.890",148,"test","bigSsmallH.png","H","S","up_left",-0.2,0.2,"s","s","glo","inc",1,874.000072
4,"2020-02-03_18h47.19.890",149,"test","bigSsmallH.png","H","S","down_left",-0.2,-0.2,"s","s","glo","inc",1,904.999971
4,"2020-02-03_18h47.19.890",150,"test","bigHsmallS.png","S","H","up_left",-0.2,0.2,"h","h","glo","inc",1,1006.999969
4,"2020-02-03_18h47.19.890",151,"test","bigSsmallH.png","H","S","up_right",0.2,0.2,"s","s","glo","inc",1,1021.999836
4,"2020-02-03_18h47.19.890",152,"test","bigHsmallS.png","S","H","up_right",0.2,0.2,"h","h","glo","inc",1,930.999994
4,"2020-02-03_18h47.19.890",153,"test","bigHsmallH.png","H","H","up_left",-0.2,0.2,"h","h","glo","con",1,1022.000074
4,"2020-02-03_18h47.19.890",154,"test","bigHsmallH.png","H","H","down_left",-0.2,-0.2,"h","h","glo","con",1,1040.999889
4,"2020-02-03_18h47.19.890",155,"test","bigSsmallS.png","S","S","down_right",0.2,-0.2,"s","s","glo","con",1,1073.999882
4,"2020-02-03_18h47.19.890",156,"test","bigSsmallH.png","H","S","down_right",0.2,-0.2,"s","s","glo","inc",1,1072.000027
4,"2020-02-03_18h47.19.890",157,"test","bigSsmallS.png","S","S","up_left",-0.2,0.2,"s","s","glo","con",1,870.000124
4,"2020-02-03_18h47.19.890",158,"test","bigHsmallH.png","H","H","down_right",0.2,-0.2,"h","h","glo","con",1,1058.000088
4,"2020-02-03_18h47.19.890",159,"test","bigSsmallS.png","S","S","up_right",0.2,0.2,"s","s","glo","con",1,971.000195
4,"2020-02-03_18h47.19.890",160,"test","bigHsmallH.png","H","H","up_right",0.2,0.2,"h","h","glo","con",1,1018.000126
4,"2020-02-03_18h47.19.890",161,"test","bigHsmallS.png","S","H","up_right",0.2,0.2,"h","h","glo","inc",1,957.999945
4,"2020-02-03_18h47.19.890",162,"test","bigSsmallS.png","S","S","up_right",0.2,0.2,"s","s","glo","con",1,991.000175
4,"2020-02-03_18h47.19.890",163,"test","bigSsmallH.png","H","S","down_right",0.2,-0.2,"s","s","glo","inc",1,957.000017
4,"2020-02-03_18h47.19.890",164,"test","bigHsmallS.png","S","H","down_left",-0.2,-0.2,"h","h","glo","inc",1,1055.999994
4,"2020-02-03_18h47.19.890",165,"test","bigHsmallH.png","H","H","up_right",0.2,0.2,"h","h","glo","con",1,1041.000128
4,"2020-02-03_18h47.19.890",166,"test","bigHsmallH.png","H","H","down_right",0.2,-0.2,"h","h","glo","con",1,874.000072
4,"2020-02-03_18h47.19.890",167,"test","bigSsmallS.png","S","S","down_right",0.2,-0.2,"s","s","glo","con",1,938.999891
4,"2020-02-03_18h47.19.890",168,"test","bigHsmallS.png","S","H","down_right",0.2,-0.2,"h","h","glo","inc",1,906.000137
4,"2020-02-03_18h47.19.890",169,"test","bigHsmallS.png","S","H","up_left",-0.2,0.2,"h","h","glo","inc",1,971.999884
4,"2020-02-03_18h47.19.890",170,"test","bigSsmallH.png","H","S","up_right",0.2,0.2,"s","s","glo","inc",1,990.00001
4,"2020-02-03_18h47.19.890",171,"test","bigSsmallS.png","S","S","up_left",-0.2,0.2,"s","s","glo","con",1,924.000025
4,"2020-02-03_18h47.19.890",172,"test","bigSsmallH.png","H","S","up_left",-0.2,0.2,"s","s","glo","inc",1,875
4,"2020-02-03_18h47.19.890",173,"test","bigHsmallH.png","H","H","up_left",-0.2,0.2,"h","h","glo","con",1,888.999939
4,"2020-02-03_18h47.19.890",174,"test","bigSsmallH.png","H","S","down_left",-0.2,-0.2,"s","s","glo","inc",1,1656.999826
4,"2020-02-03_18h47.19.890",175,"test","bigHsmallH.png","H","H","down_left",-0.2,-0.2,"h","h","glo","con",1,1239.999771
4,"2020-02-03_18h47.19.890",176,"test","bigSsmallS.png","S","S","down_left",-0.2,-0.2,"s","s","glo","con",1,1056.999922
4,"2020-02-03_18h47.19.890",177,"test","bigSsmallS.png","S","S","up_left",-0.2,0.2,"s","s","glo","con",1,990.00001
4,"2020-02-03_18h47.19.890",178,"test","bigHsmallS.png","S","H","up_right",0.2,0.2,"h","h","glo","inc",1,906.999826
4,"2020-02-03_18h47.19.890",179,"test","bigSsmallH.png","H","S","down_left",-0.2,-0.2,"s","s","glo","inc",1,923.000097
4,"2020-02-03_18h47.19.890",180,"test","bigHsmallS.png","S","H","down_right",0.2,-0.2,"h","h","glo","inc",1,824.999809
4,"2020-02-03_18h47.19.890",181,"test","bigHsmallH.png","H","H","down_right",0.2,-0.2,"h","h","glo","con",1,1508.000135
4,"2020-02-03_18h47.19.890",182,"test","bigSsmallH.png","H","S","up_left",-0.2,0.2,"s","s","glo","inc",1,1154.999971
4,"2020-02-03_18h47.19.890",183,"test","bigSsmallH.png","H","S","up_right",0.2,0.2,"s","s","glo","inc",1,1018.000126
4,"2020-02-03_18h47.19.890",184,"test","bigHsmallH.png","H","H","up_left",-0.2,0.2,"h","h","glo","con",1,1024.000168
4,"2020-02-03_18h47.19.890",185,"test","bigHsmallS.png","S","H","up_left",-0.2,0.2,"h","h","glo","inc",1,921.999931
4,"2020-02-03_18h47.19.890",186,"test","bigSsmallS.png","S","S","up_right",0.2,0.2,"s","s","glo","con",1,1186.000109
4,"2020-02-03_18h47.19.890",187,"test","bigHsmallS.png","S","H","down_left",-0.2,-0.2,"h","h","glo","inc",1,1129.000187
4,"2020-02-03_18h47.19.890",188,"test","bigSsmallS.png","S","S","down_right",0.2,-0.2,"s","s","glo","con",1,973.999977
4,"2020-02-03_18h47.19.890",189,"test","bigHsmallH.png","H","H","down_left",-0.2,-0.2,"h","h","glo","con",1,941.999912
4,"2020-02-03_18h47.19.890",190,"test","bigHsmallH.png","H","H","up_right",0.2,0.2,"h","h","glo","con",1,980.000019
4,"2020-02-03_18h47.19.890",191,"test","bigSsmallS.png","S","S","down_left",-0.2,-0.2,"s","s","glo","con",1,871.999979
4,"2020-02-03_18h47.19.890",192,"test","bigSsmallH.png","H","S","down_right",0.2,-0.2,"s","s","glo","inc",1,989.000082
5,"2020-02-03_19h25.23.441",NA,"practice","bigHsmallS.png","S","H","down_right",0.2,-0.2,"h","s","glo","inc",0,2339.999914
5,"2020-02-03_19h25.23.441",NA,"practice","bigHsmallS.png","S","H","down_left",-0.2,-0.2,"h","h","glo","inc",1,875
5,"2020-02-03_19h25.23.441",NA,"practice","bigSsmallH.png","H","S","up_right",0.2,0.2,"s","s","glo","inc",1,638.999939
5,"2020-02-03_19h25.23.441",NA,"practice","bigHsmallS.png","S","H","up_left",-0.2,0.2,"h","h","glo","inc",1,676.000118
5,"2020-02-03_19h25.23.441",NA,"practice","bigSsmallH.png","H","S","down_left",-0.2,-0.2,"s","s","glo","inc",1,658.99992
5,"2020-02-03_19h25.23.441",NA,"practice","bigSsmallH.png","H","S","up_left",-0.2,0.2,"s","s","glo","inc",1,592.999935
5,"2020-02-03_19h25.23.441",NA,"practice","bigSsmallH.png","H","S","down_right",0.2,-0.2,"s","s","glo","inc",1,562.999964
5,"2020-02-03_19h25.23.441",NA,"practice","bigHsmallH.png","H","H","up_right",0.2,0.2,"h","h","glo","con",1,371.999979
5,"2020-02-03_19h25.23.441",NA,"practice","bigSsmallH.png","H","S","up_left",-0.2,0.2,"h","h","loc","inc",1,1424.000025
5,"2020-02-03_19h25.23.441",NA,"practice","bigHsmallS.png","S","H","down_left",-0.2,-0.2,"s","s","loc","inc",1,759.000063
